"rt","stimulus","key_press","trial_type","trial_index","time_elapsed","internal_node_id","exp_id","Time","year","month","date","hour","minute","seconds","id","age","Gender","Handedness","mood","fresh","hunger","H_since_Sleep","H_since_Eat","responses","question_order","slider_start","response","test_part","face","word","correct_response","correct"
"293767.74499999743","<p>Welcome to this experiment on daily rhythms and cognition.</p><p>First you will be asked some questions about yourself.</p><p>Then a short experiment will measure your response time.</p><p>Take the test at different times of the day/night.</p><p>The test is anonymous, but comparing your data across time is important.</p><p>Therefore, please make up and remember a personal ID (two letters+ two numbers).</p><p>Use this ID whenever taking the test.</p><p><strong>Press any key to begin.</strong></p>","13","html-keyboard-response","0","293771","0.0-0.0","zsuvrj","Tue Feb 16 2021 07:59:48 GMT+0100 (Centraleuropæisk normaltid)","2021","2","16","7","59","48","lb11","57","female","left","77","87","87","0","11,21","","","","","","","","",""
"11329.099999998987","","","survey-text","1","305116","0.0-1.0","zsuvrj","Tue Feb 16 2021 07:59:48 GMT+0100 (Centraleuropæisk normaltid)","2021","2","16","7","59","48","lb11","57","female","left","77","87","87","0","11,21","{""Q0"":""lb11""}","","","","","","","",""
"16195.880000002915","","","survey-text","2","321317","0.0-2.0","zsuvrj","Tue Feb 16 2021 07:59:48 GMT+0100 (Centraleuropæisk normaltid)","2021","2","16","7","59","48","lb11","57","female","left","77","87","87","0","11,21","{""Q0"":""57""}","","","","","","","",""
"17339.759999998903","","","survey-multi-select","3","338660","0.0-3.0","zsuvrj","Tue Feb 16 2021 07:59:48 GMT+0100 (Centraleuropæisk normaltid)","2021","2","16","7","59","48","lb11","57","female","left","77","87","87","0","11,21","{""Gender"":[""female""],""Hand"":[""left""]}","[0,1]","","","","","","",""
"27766.35499999975","<p>How Sad/Angry or Happy are you right now?</p>","","html-slider-response","4","366424","0.0-4.0","zsuvrj","Tue Feb 16 2021 07:59:48 GMT+0100 (Centraleuropæisk normaltid)","2021","2","16","7","59","48","lb11","57","female","left","77","87","87","0","11,21","","","50","77","","","","",""
"24759.75499999919","<p>How Tired/Sleepy/Distracted or Fresh/Awake/Alert are you right now?</p>","","html-slider-response","5","391185","0.0-5.0","zsuvrj","Tue Feb 16 2021 07:59:48 GMT+0100 (Centraleuropæisk normaltid)","2021","2","16","7","59","48","lb11","57","female","left","77","87","87","0","11,21","","","50","87","","","","",""
"8629.28500000271","<p>How Hungry or Satiated are you right now?</p>","","html-slider-response","6","399816","0.0-6.0","zsuvrj","Tue Feb 16 2021 07:59:48 GMT+0100 (Centraleuropæisk normaltid)","2021","2","16","7","59","48","lb11","57","female","left","77","87","87","0","11,21","","","50","87","","","","",""
"62055.270000000775","","","survey-multi-select","7","461893","0.0-7.0","zsuvrj","Tue Feb 16 2021 07:59:48 GMT+0100 (Centraleuropæisk normaltid)","2021","2","16","7","59","48","lb11","57","female","left","77","87","87","0","11,21","{""Sleep"":[""0""],""Eat"":[""11"",""21""]}","[0,1]","","","","","","",""
"96768.32500000088","<p>In this experiment, a face and a word will appear in the center of the screen.</p><p>If the face is <strong>happy</strong>, press the letter <strong>H</strong> with <strong>right</strong> index finger.</p><p>If the face is <strong>fearful</strong>, press the letter <strong>F</strong> with <strong>left</strong> index finger.</p><p><strong>Ignore the written words</strong>. Respond as fast as possible while being correct. </p><div style='width: 900px;'><div style='float: left;'><img src='img/stimuli_stroop_happy.png'></img><p class='small'><strong>Press the H key for happy faces</strong></p></div><div class='float: right;'><img src='img/stimuli_stroop_fear.png'></img><p class='small'><strong>Press the F key for faces with fear</strong></p></div></div><p>If the screen turns blank, press <strong>SPACE</strong></p><p><strong>Press any key to begin.</strong></p>","70","html-keyboard-response","8","558656","0.0-8.0","zsuvrj","Tue Feb 16 2021 07:59:48 GMT+0100 (Centraleuropæisk normaltid)","2021","2","16","7","59","48","lb11","57","female","left","77","87","87","0","11,21","","","","","","","","",""
"null","<div style=""font-size:60px;"">+</div>","null","html-keyboard-response","9","561170","0.0-9.0-0.0","zsuvrj","Tue Feb 16 2021 07:59:48 GMT+0100 (Centraleuropæisk normaltid)","2021","2","16","7","59","48","lb11","57","female","left","77","87","87","0","11,21","","","","","fixation","","","",""
"3762.4999999970896","img/image_stim_h_stroop.png","70","image-keyboard-response","10","564966","0.0-9.0-1.0","zsuvrj","Tue Feb 16 2021 07:59:48 GMT+0100 (Centraleuropæisk normaltid)","2021","2","16","7","59","48","lb11","57","female","left","77","87","87","0","11,21","","","","","test","happy","fear","h","false"
"null","<div style=""font-size:60px;"">+</div>","null","html-keyboard-response","11","566476","0.0-9.0-0.1","zsuvrj","Tue Feb 16 2021 07:59:48 GMT+0100 (Centraleuropæisk normaltid)","2021","2","16","7","59","48","lb11","57","female","left","77","87","87","0","11,21","","","","","fixation","","","",""
"null","img/image_stim_f.png","null","image-keyboard-response","12","571480","0.0-9.0-1.1","zsuvrj","Tue Feb 16 2021 07:59:48 GMT+0100 (Centraleuropæisk normaltid)","2021","2","16","7","59","48","lb11","57","female","left","77","87","87","0","11,21","","","","","test","fear","fear","f","false"
"null","<div style=""font-size:60px;"">+</div>","null","html-keyboard-response","13","571737","0.0-9.0-0.2","zsuvrj","Tue Feb 16 2021 07:59:48 GMT+0100 (Centraleuropæisk normaltid)","2021","2","16","7","59","48","lb11","57","female","left","77","87","87","0","11,21","","","","","fixation","","","",""
"2028.6899999992456","img/image_stim_h.png","72","image-keyboard-response","14","573770","0.0-9.0-1.2","zsuvrj","Tue Feb 16 2021 07:59:48 GMT+0100 (Centraleuropæisk normaltid)","2021","2","16","7","59","48","lb11","57","female","left","77","87","87","0","11,21","","","","","test","happy","happy","h","true"
"null","<div style=""font-size:60px;"">+</div>","null","html-keyboard-response","15","575280","0.0-9.0-0.3","zsuvrj","Tue Feb 16 2021 07:59:48 GMT+0100 (Centraleuropæisk normaltid)","2021","2","16","7","59","48","lb11","57","female","left","77","87","87","0","11,21","","","","","fixation","","","",""
"2092.2649999993155","img/image_stim_f_stroop.png","70","image-keyboard-response","16","577376","0.0-9.0-1.3","zsuvrj","Tue Feb 16 2021 07:59:48 GMT+0100 (Centraleuropæisk normaltid)","2021","2","16","7","59","48","lb11","57","female","left","77","87","87","0","11,21","","","","","test","fear","happy","f","true"
"null","<div style=""font-size:60px;"">+</div>","null","html-keyboard-response","17","579385","0.0-9.0-0.4","zsuvrj","Tue Feb 16 2021 07:59:48 GMT+0100 (Centraleuropæisk normaltid)","2021","2","16","7","59","48","lb11","57","female","left","77","87","87","0","11,21","","","","","fixation","","","",""
"1201.8400000014808","img/image_stim_f_stroop.png","70","image-keyboard-response","18","580590","0.0-9.0-1.4","zsuvrj","Tue Feb 16 2021 07:59:48 GMT+0100 (Centraleuropæisk normaltid)","2021","2","16","7","59","48","lb11","57","female","left","77","87","87","0","11,21","","","","","test","fear","happy","f","true"
"null","<div style=""font-size:60px;"">+</div>","null","html-keyboard-response","19","581347","0.0-9.0-0.5","zsuvrj","Tue Feb 16 2021 07:59:48 GMT+0100 (Centraleuropæisk normaltid)","2021","2","16","7","59","48","lb11","57","female","left","77","87","87","0","11,21","","","","","fixation","","","",""
"974.920000000624","img/image_stim_h.png","72","image-keyboard-response","20","582325","0.0-9.0-1.5","zsuvrj","Tue Feb 16 2021 07:59:48 GMT+0100 (Centraleuropæisk normaltid)","2021","2","16","7","59","48","lb11","57","female","left","77","87","87","0","11,21","","","","","test","happy","happy","h","true"
"null","<div style=""font-size:60px;"">+</div>","null","html-keyboard-response","21","582588","0.0-9.0-0.6","zsuvrj","Tue Feb 16 2021 07:59:48 GMT+0100 (Centraleuropæisk normaltid)","2021","2","16","7","59","48","lb11","57","female","left","77","87","87","0","11,21","","","","","fixation","","","",""
"2368.510000000242","img/image_stim_f.png","70","image-keyboard-response","22","584959","0.0-9.0-1.6","zsuvrj","Tue Feb 16 2021 07:59:48 GMT+0100 (Centraleuropæisk normaltid)","2021","2","16","7","59","48","lb11","57","female","left","77","87","87","0","11,21","","","","","test","fear","fear","f","true"
"null","<div style=""font-size:60px;"">+</div>","null","html-keyboard-response","23","586723","0.0-9.0-0.7","zsuvrj","Tue Feb 16 2021 07:59:48 GMT+0100 (Centraleuropæisk normaltid)","2021","2","16","7","59","48","lb11","57","female","left","77","87","87","0","11,21","","","","","fixation","","","",""
"1407.0299999985145","img/image_stim_h_stroop.png","72","image-keyboard-response","24","588134","0.0-9.0-1.7","zsuvrj","Tue Feb 16 2021 07:59:48 GMT+0100 (Centraleuropæisk normaltid)","2021","2","16","7","59","48","lb11","57","female","left","77","87","87","0","11,21","","","","","test","happy","fear","h","true"
"null","<div style=""font-size:60px;"">+</div>","null","html-keyboard-response","25","590142","0.0-9.0-0.8","zsuvrj","Tue Feb 16 2021 07:59:48 GMT+0100 (Centraleuropæisk normaltid)","2021","2","16","7","59","48","lb11","57","female","left","77","87","87","0","11,21","","","","","fixation","","","",""
"791.9999999976717","img/image_stim_h.png","72","image-keyboard-response","26","590938","0.0-9.0-1.8","zsuvrj","Tue Feb 16 2021 07:59:48 GMT+0100 (Centraleuropæisk normaltid)","2021","2","16","7","59","48","lb11","57","female","left","77","87","87","0","11,21","","","","","test","happy","happy","h","true"
"null","<div style=""font-size:60px;"">+</div>","null","html-keyboard-response","27","592949","0.0-9.0-0.9","zsuvrj","Tue Feb 16 2021 07:59:48 GMT+0100 (Centraleuropæisk normaltid)","2021","2","16","7","59","48","lb11","57","female","left","77","87","87","0","11,21","","","","","fixation","","","",""
"1600.5800000020536","img/image_stim_f_stroop.png","70","image-keyboard-response","28","594554","0.0-9.0-1.9","zsuvrj","Tue Feb 16 2021 07:59:48 GMT+0100 (Centraleuropæisk normaltid)","2021","2","16","7","59","48","lb11","57","female","left","77","87","87","0","11,21","","","","","test","fear","happy","f","true"
"null","<div style=""font-size:60px;"">+</div>","null","html-keyboard-response","29","595066","0.0-9.0-0.10","zsuvrj","Tue Feb 16 2021 07:59:48 GMT+0100 (Centraleuropæisk normaltid)","2021","2","16","7","59","48","lb11","57","female","left","77","87","87","0","11,21","","","","","fixation","","","",""
"1136.7449999997625","img/image_stim_h_stroop.png","72","image-keyboard-response","30","596205","0.0-9.0-1.10","zsuvrj","Tue Feb 16 2021 07:59:48 GMT+0100 (Centraleuropæisk normaltid)","2021","2","16","7","59","48","lb11","57","female","left","77","87","87","0","11,21","","","","","test","happy","fear","h","true"
"null","<div style=""font-size:60px;"">+</div>","null","html-keyboard-response","31","597462","0.0-9.0-0.11","zsuvrj","Tue Feb 16 2021 07:59:48 GMT+0100 (Centraleuropæisk normaltid)","2021","2","16","7","59","48","lb11","57","female","left","77","87","87","0","11,21","","","","","fixation","","","",""
"1904.4400000020396","img/image_stim_f.png","70","image-keyboard-response","32","599370","0.0-9.0-1.11","zsuvrj","Tue Feb 16 2021 07:59:48 GMT+0100 (Centraleuropæisk normaltid)","2021","2","16","7","59","48","lb11","57","female","left","77","87","87","0","11,21","","","","","test","fear","fear","f","true"
"null","<div style=""font-size:60px;"">+</div>","null","html-keyboard-response","33","600637","0.0-9.0-0.12","zsuvrj","Tue Feb 16 2021 07:59:48 GMT+0100 (Centraleuropæisk normaltid)","2021","2","16","7","59","48","lb11","57","female","left","77","87","87","0","11,21","","","","","fixation","","","",""
"880.4049999999115","img/image_stim_h.png","72","image-keyboard-response","34","601521","0.0-9.0-1.12","zsuvrj","Tue Feb 16 2021 07:59:48 GMT+0100 (Centraleuropæisk normaltid)","2021","2","16","7","59","48","lb11","57","female","left","77","87","87","0","11,21","","","","","test","happy","happy","h","true"
"null","<div style=""font-size:60px;"">+</div>","null","html-keyboard-response","35","603281","0.0-9.0-0.13","zsuvrj","Tue Feb 16 2021 07:59:48 GMT+0100 (Centraleuropæisk normaltid)","2021","2","16","7","59","48","lb11","57","female","left","77","87","87","0","11,21","","","","","fixation","","","",""
"1473.9200000002747","img/image_stim_f_stroop.png","70","image-keyboard-response","36","604759","0.0-9.0-1.13","zsuvrj","Tue Feb 16 2021 07:59:48 GMT+0100 (Centraleuropæisk normaltid)","2021","2","16","7","59","48","lb11","57","female","left","77","87","87","0","11,21","","","","","test","fear","happy","f","true"
"null","<div style=""font-size:60px;"">+</div>","null","html-keyboard-response","37","605766","0.0-9.0-0.14","zsuvrj","Tue Feb 16 2021 07:59:48 GMT+0100 (Centraleuropæisk normaltid)","2021","2","16","7","59","48","lb11","57","female","left","77","87","87","0","11,21","","","","","fixation","","","",""
"1014.5250000023516","img/image_stim_h_stroop.png","72","image-keyboard-response","38","606783","0.0-9.0-1.14","zsuvrj","Tue Feb 16 2021 07:59:48 GMT+0100 (Centraleuropæisk normaltid)","2021","2","16","7","59","48","lb11","57","female","left","77","87","87","0","11,21","","","","","test","happy","fear","h","true"
"null","<div style=""font-size:60px;"">+</div>","null","html-keyboard-response","39","608546","0.0-9.0-0.15","zsuvrj","Tue Feb 16 2021 07:59:48 GMT+0100 (Centraleuropæisk normaltid)","2021","2","16","7","59","48","lb11","57","female","left","77","87","87","0","11,21","","","","","fixation","","","",""
"1215.9950000023236","img/image_stim_f.png","70","image-keyboard-response","40","609764","0.0-9.0-1.15","zsuvrj","Tue Feb 16 2021 07:59:48 GMT+0100 (Centraleuropæisk normaltid)","2021","2","16","7","59","48","lb11","57","female","left","77","87","87","0","11,21","","","","","test","fear","fear","f","true"
"null","<div style=""font-size:60px;"">+</div>","null","html-keyboard-response","41","610287","0.0-9.0-0.16","zsuvrj","Tue Feb 16 2021 07:59:48 GMT+0100 (Centraleuropæisk normaltid)","2021","2","16","7","59","48","lb11","57","female","left","77","87","87","0","11,21","","","","","fixation","","","",""
"730.4949999997625","img/image_stim_h_stroop.png","72","image-keyboard-response","42","611021","0.0-9.0-1.16","zsuvrj","Tue Feb 16 2021 07:59:48 GMT+0100 (Centraleuropæisk normaltid)","2021","2","16","7","59","48","lb11","57","female","left","77","87","87","0","11,21","","","","","test","happy","fear","h","true"
"null","<div style=""font-size:60px;"">+</div>","null","html-keyboard-response","43","613040","0.0-9.0-0.17","zsuvrj","Tue Feb 16 2021 07:59:48 GMT+0100 (Centraleuropæisk normaltid)","2021","2","16","7","59","48","lb11","57","female","left","77","87","87","0","11,21","","","","","fixation","","","",""
"982.4399999997113","img/image_stim_f_stroop.png","70","image-keyboard-response","44","614026","0.0-9.0-1.17","zsuvrj","Tue Feb 16 2021 07:59:48 GMT+0100 (Centraleuropæisk normaltid)","2021","2","16","7","59","48","lb11","57","female","left","77","87","87","0","11,21","","","","","test","fear","happy","f","true"
"null","<div style=""font-size:60px;"">+</div>","null","html-keyboard-response","45","616040","0.0-9.0-0.18","zsuvrj","Tue Feb 16 2021 07:59:48 GMT+0100 (Centraleuropæisk normaltid)","2021","2","16","7","59","48","lb11","57","female","left","77","87","87","0","11,21","","","","","fixation","","","",""
"857.7150000019465","img/image_stim_f.png","70","image-keyboard-response","46","616900","0.0-9.0-1.18","zsuvrj","Tue Feb 16 2021 07:59:48 GMT+0100 (Centraleuropæisk normaltid)","2021","2","16","7","59","48","lb11","57","female","left","77","87","87","0","11,21","","","","","test","fear","fear","f","true"
"null","<div style=""font-size:60px;"">+</div>","null","html-keyboard-response","47","618667","0.0-9.0-0.19","zsuvrj","Tue Feb 16 2021 07:59:48 GMT+0100 (Centraleuropæisk normaltid)","2021","2","16","7","59","48","lb11","57","female","left","77","87","87","0","11,21","","","","","fixation","","","",""
"1191.1949999994831","img/image_stim_h.png","72","image-keyboard-response","48","619861","0.0-9.0-1.19","zsuvrj","Tue Feb 16 2021 07:59:48 GMT+0100 (Centraleuropæisk normaltid)","2021","2","16","7","59","48","lb11","57","female","left","77","87","87","0","11,21","","","","","test","happy","happy","h","true"
"null","<div style=""font-size:60px;"">+</div>","null","html-keyboard-response","49","621372","0.0-9.0-0.20","zsuvrj","Tue Feb 16 2021 07:59:48 GMT+0100 (Centraleuropæisk normaltid)","2021","2","16","7","59","48","lb11","57","female","left","77","87","87","0","11,21","","","","","fixation","","","",""
"725.5100000002421","img/image_stim_f_stroop.png","70","image-keyboard-response","50","622102","0.0-9.0-1.20","zsuvrj","Tue Feb 16 2021 07:59:48 GMT+0100 (Centraleuropæisk normaltid)","2021","2","16","7","59","48","lb11","57","female","left","77","87","87","0","11,21","","","","","test","fear","happy","f","true"
"null","<div style=""font-size:60px;"">+</div>","null","html-keyboard-response","51","622613","0.0-9.0-0.21","zsuvrj","Tue Feb 16 2021 07:59:48 GMT+0100 (Centraleuropæisk normaltid)","2021","2","16","7","59","48","lb11","57","female","left","77","87","87","0","11,21","","","","","fixation","","","",""
"794.2449999973178","img/image_stim_h_stroop.png","72","image-keyboard-response","52","623410","0.0-9.0-1.21","zsuvrj","Tue Feb 16 2021 07:59:48 GMT+0100 (Centraleuropæisk normaltid)","2021","2","16","7","59","48","lb11","57","female","left","77","87","87","0","11,21","","","","","test","happy","fear","h","true"
"null","<div style=""font-size:60px;"">+</div>","null","html-keyboard-response","53","624174","0.0-9.0-0.22","zsuvrj","Tue Feb 16 2021 07:59:48 GMT+0100 (Centraleuropæisk normaltid)","2021","2","16","7","59","48","lb11","57","female","left","77","87","87","0","11,21","","","","","fixation","","","",""
"1256.965000000433","img/image_stim_h.png","72","image-keyboard-response","54","625434","0.0-9.0-1.22","zsuvrj","Tue Feb 16 2021 07:59:48 GMT+0100 (Centraleuropæisk normaltid)","2021","2","16","7","59","48","lb11","57","female","left","77","87","87","0","11,21","","","","","test","happy","happy","h","true"
"null","<div style=""font-size:60px;"">+</div>","null","html-keyboard-response","55","626450","0.0-9.0-0.23","zsuvrj","Tue Feb 16 2021 07:59:48 GMT+0100 (Centraleuropæisk normaltid)","2021","2","16","7","59","48","lb11","57","female","left","77","87","87","0","11,21","","","","","fixation","","","",""
"723.5150000015274","img/image_stim_f.png","70","image-keyboard-response","56","627177","0.0-9.0-1.23","zsuvrj","Tue Feb 16 2021 07:59:48 GMT+0100 (Centraleuropæisk normaltid)","2021","2","16","7","59","48","lb11","57","female","left","77","87","87","0","11,21","","","","","test","fear","fear","f","true"
"null","<div style=""font-size:60px;"">+</div>","null","html-keyboard-response","57","628943","0.0-9.0-0.24","zsuvrj","Tue Feb 16 2021 07:59:48 GMT+0100 (Centraleuropæisk normaltid)","2021","2","16","7","59","48","lb11","57","female","left","77","87","87","0","11,21","","","","","fixation","","","",""
"923.1749999999302","img/image_stim_f_stroop.png","70","image-keyboard-response","58","629871","0.0-9.0-1.24","zsuvrj","Tue Feb 16 2021 07:59:48 GMT+0100 (Centraleuropæisk normaltid)","2021","2","16","7","59","48","lb11","57","female","left","77","87","87","0","11,21","","","","","test","fear","happy","f","true"
"null","<div style=""font-size:60px;"">+</div>","null","html-keyboard-response","59","630636","0.0-9.0-0.25","zsuvrj","Tue Feb 16 2021 07:59:48 GMT+0100 (Centraleuropæisk normaltid)","2021","2","16","7","59","48","lb11","57","female","left","77","87","87","0","11,21","","","","","fixation","","","",""
"719.4999999993015","img/image_stim_h_stroop.png","72","image-keyboard-response","60","631360","0.0-9.0-1.25","zsuvrj","Tue Feb 16 2021 07:59:48 GMT+0100 (Centraleuropæisk normaltid)","2021","2","16","7","59","48","lb11","57","female","left","77","87","87","0","11,21","","","","","test","happy","fear","h","true"
"null","<div style=""font-size:60px;"">+</div>","null","html-keyboard-response","61","632873","0.0-9.0-0.26","zsuvrj","Tue Feb 16 2021 07:59:48 GMT+0100 (Centraleuropæisk normaltid)","2021","2","16","7","59","48","lb11","57","female","left","77","87","87","0","11,21","","","","","fixation","","","",""
"934.1700000003912","img/image_stim_f.png","70","image-keyboard-response","62","633811","0.0-9.0-1.26","zsuvrj","Tue Feb 16 2021 07:59:48 GMT+0100 (Centraleuropæisk normaltid)","2021","2","16","7","59","48","lb11","57","female","left","77","87","87","0","11,21","","","","","test","fear","fear","f","true"
"null","<div style=""font-size:60px;"">+</div>","null","html-keyboard-response","63","634081","0.0-9.0-0.27","zsuvrj","Tue Feb 16 2021 07:59:48 GMT+0100 (Centraleuropæisk normaltid)","2021","2","16","7","59","48","lb11","57","female","left","77","87","87","0","11,21","","","","","fixation","","","",""
"813.0149999997811","img/image_stim_h.png","72","image-keyboard-response","64","634896","0.0-9.0-1.27","zsuvrj","Tue Feb 16 2021 07:59:48 GMT+0100 (Centraleuropæisk normaltid)","2021","2","16","7","59","48","lb11","57","female","left","77","87","87","0","11,21","","","","","test","happy","happy","h","true"
"null","<div style=""font-size:60px;"">+</div>","null","html-keyboard-response","65","635664","0.0-9.0-0.28","zsuvrj","Tue Feb 16 2021 07:59:48 GMT+0100 (Centraleuropæisk normaltid)","2021","2","16","7","59","48","lb11","57","female","left","77","87","87","0","11,21","","","","","fixation","","","",""
"801.7300000028918","img/image_stim_h.png","72","image-keyboard-response","66","636469","0.0-9.0-1.28","zsuvrj","Tue Feb 16 2021 07:59:48 GMT+0100 (Centraleuropæisk normaltid)","2021","2","16","7","59","48","lb11","57","female","left","77","87","87","0","11,21","","","","","test","happy","happy","h","true"
"null","<div style=""font-size:60px;"">+</div>","null","html-keyboard-response","67","637731","0.0-9.0-0.29","zsuvrj","Tue Feb 16 2021 07:59:48 GMT+0100 (Centraleuropæisk normaltid)","2021","2","16","7","59","48","lb11","57","female","left","77","87","87","0","11,21","","","","","fixation","","","",""
"1493.7300000019604","img/image_stim_f_stroop.png","70","image-keyboard-response","68","639229","0.0-9.0-1.29","zsuvrj","Tue Feb 16 2021 07:59:48 GMT+0100 (Centraleuropæisk normaltid)","2021","2","16","7","59","48","lb11","57","female","left","77","87","87","0","11,21","","","","","test","fear","happy","f","true"
"null","<div style=""font-size:60px;"">+</div>","null","html-keyboard-response","69","640009","0.0-9.0-0.30","zsuvrj","Tue Feb 16 2021 07:59:48 GMT+0100 (Centraleuropæisk normaltid)","2021","2","16","7","59","48","lb11","57","female","left","77","87","87","0","11,21","","","","","fixation","","","",""
"778.0450000027195","img/image_stim_h_stroop.png","72","image-keyboard-response","70","640790","0.0-9.0-1.30","zsuvrj","Tue Feb 16 2021 07:59:48 GMT+0100 (Centraleuropæisk normaltid)","2021","2","16","7","59","48","lb11","57","female","left","77","87","87","0","11,21","","","","","test","happy","fear","h","true"
"null","<div style=""font-size:60px;"">+</div>","null","html-keyboard-response","71","641051","0.0-9.0-0.31","zsuvrj","Tue Feb 16 2021 07:59:48 GMT+0100 (Centraleuropæisk normaltid)","2021","2","16","7","59","48","lb11","57","female","left","77","87","87","0","11,21","","","","","fixation","","","",""
"858.9100000027101","img/image_stim_f.png","70","image-keyboard-response","72","641912","0.0-9.0-1.31","zsuvrj","Tue Feb 16 2021 07:59:48 GMT+0100 (Centraleuropæisk normaltid)","2021","2","16","7","59","48","lb11","57","female","left","77","87","87","0","11,21","","","","","test","fear","fear","f","true"
"null","<div style=""font-size:60px;"">+</div>","null","html-keyboard-response","73","642681","0.0-9.0-0.32","zsuvrj","Tue Feb 16 2021 07:59:48 GMT+0100 (Centraleuropæisk normaltid)","2021","2","16","7","59","48","lb11","57","female","left","77","87","87","0","11,21","","","","","fixation","","","",""
"584.7700000012992","img/image_stim_h_stroop.png","72","image-keyboard-response","74","643269","0.0-9.0-1.32","zsuvrj","Tue Feb 16 2021 07:59:48 GMT+0100 (Centraleuropæisk normaltid)","2021","2","16","7","59","48","lb11","57","female","left","77","87","87","0","11,21","","","","","test","happy","fear","h","true"
"null","<div style=""font-size:60px;"">+</div>","null","html-keyboard-response","75","643531","0.0-9.0-0.33","zsuvrj","Tue Feb 16 2021 07:59:48 GMT+0100 (Centraleuropæisk normaltid)","2021","2","16","7","59","48","lb11","57","female","left","77","87","87","0","11,21","","","","","fixation","","","",""
"959.0649999991292","img/image_stim_f_stroop.png","70","image-keyboard-response","76","644493","0.0-9.0-1.33","zsuvrj","Tue Feb 16 2021 07:59:48 GMT+0100 (Centraleuropæisk normaltid)","2021","2","16","7","59","48","lb11","57","female","left","77","87","87","0","11,21","","","","","test","fear","happy","f","true"
"null","<div style=""font-size:60px;"">+</div>","null","html-keyboard-response","77","645509","0.0-9.0-0.34","zsuvrj","Tue Feb 16 2021 07:59:48 GMT+0100 (Centraleuropæisk normaltid)","2021","2","16","7","59","48","lb11","57","female","left","77","87","87","0","11,21","","","","","fixation","","","",""
"993.6500000002561","img/image_stim_f.png","70","image-keyboard-response","78","646505","0.0-9.0-1.34","zsuvrj","Tue Feb 16 2021 07:59:48 GMT+0100 (Centraleuropæisk normaltid)","2021","2","16","7","59","48","lb11","57","female","left","77","87","87","0","11,21","","","","","test","fear","fear","f","true"
"null","<div style=""font-size:60px;"">+</div>","null","html-keyboard-response","79","648269","0.0-9.0-0.35","zsuvrj","Tue Feb 16 2021 07:59:48 GMT+0100 (Centraleuropæisk normaltid)","2021","2","16","7","59","48","lb11","57","female","left","77","87","87","0","11,21","","","","","fixation","","","",""
"627.0399999994552","img/image_stim_h.png","72","image-keyboard-response","80","648899","0.0-9.0-1.35","zsuvrj","Tue Feb 16 2021 07:59:48 GMT+0100 (Centraleuropæisk normaltid)","2021","2","16","7","59","48","lb11","57","female","left","77","87","87","0","11,21","","","","","test","happy","happy","h","true"
