"rt","stimulus","key_press","trial_type","trial_index","time_elapsed","internal_node_id","exp_id","Time","year","month","date","hour","minute","seconds","id","age","Gender","Handedness","mood","fresh","hunger","H_since_Sleep","H_since_Eat","responses","question_order","slider_start","response","test_part","face","word","correct_response","correct"
"1051.6050000151154","<p>Welcome to this experiment on daily rhythms and cognition.</p><p>First you will be asked some questions about yourself.</p><p>Then a short experiment will measure your response time.</p><p>Take the test at different times of the day/night.</p><p>The test is anonymous, but comparing your data across time is important.</p><p>Therefore, please make up and remember a personal ID (two letters+ two numbers).</p><p>Use this ID whenever taking the test.</p><p><strong>Press any key to begin.</strong></p>","78","html-keyboard-response","0","1053","0.0-0.0","lt28f2","Fri Feb 19 2021 06:33:29 GMT+0100 (Central European Standard Time)","2021","2","19","6","33","29","popper123","24","male","right","50","19","19","0","12","","","","","","","","",""
"7835.055000003194","","","survey-text","1","8892","0.0-1.0","lt28f2","Fri Feb 19 2021 06:33:29 GMT+0100 (Central European Standard Time)","2021","2","19","6","33","29","popper123","24","male","right","50","19","19","0","12","{""Q0"":""popper123""}","","","","","","","",""
"2288.880000007339","","","survey-text","2","11183","0.0-2.0","lt28f2","Fri Feb 19 2021 06:33:29 GMT+0100 (Central European Standard Time)","2021","2","19","6","33","29","popper123","24","male","right","50","19","19","0","12","{""Q0"":""24""}","","","","","","","",""
"3613.5899999935646","","","survey-multi-select","3","14800","0.0-3.0","lt28f2","Fri Feb 19 2021 06:33:29 GMT+0100 (Central European Standard Time)","2021","2","19","6","33","29","popper123","24","male","right","50","19","19","0","12","{""Gender"":[""male""],""Hand"":[""right""]}","[0,1]","","","","","","",""
"2547.755000006873","<p>How Sad/Angry or Happy are you right now?</p>","","html-slider-response","4","17349","0.0-4.0","lt28f2","Fri Feb 19 2021 06:33:29 GMT+0100 (Central European Standard Time)","2021","2","19","6","33","29","popper123","24","male","right","50","19","19","0","12","","","50","50","","","","",""
"7274.850000016158","<p>How Tired/Sleepy/Distracted or Fresh/Awake/Alert are you right now?</p>","","html-slider-response","5","24625","0.0-5.0","lt28f2","Fri Feb 19 2021 06:33:29 GMT+0100 (Central European Standard Time)","2021","2","19","6","33","29","popper123","24","male","right","50","19","19","0","12","","","50","19","","","","",""
"7034.885000000941","<p>How Hungry or Satiated are you right now?</p>","","html-slider-response","6","31661","0.0-6.0","lt28f2","Fri Feb 19 2021 06:33:29 GMT+0100 (Central European Standard Time)","2021","2","19","6","33","29","popper123","24","male","right","50","19","19","0","12","","","50","19","","","","",""
"12376.64499998209","","","survey-multi-select","7","44054","0.0-7.0","lt28f2","Fri Feb 19 2021 06:33:29 GMT+0100 (Central European Standard Time)","2021","2","19","6","33","29","popper123","24","male","right","50","19","19","0","12","{""Sleep"":[""0""],""Eat"":[""12""]}","[0,1]","","","","","","",""
"2463.1400000071153","<p>In this experiment, a face and a word will appear in the center of the screen.</p><p>If the face is <strong>happy</strong>, press the letter <strong>H</strong> with <strong>right</strong> index finger.</p><p>If the face is <strong>fearful</strong>, press the letter <strong>F</strong> with <strong>left</strong> index finger.</p><p><strong>Ignore the written words</strong>. Respond as fast as possible while being correct. </p><div style='width: 900px;'><div style='float: left;'><img src='img/stimuli_stroop_happy.png'></img><p class='small'><strong>Press the H key for happy faces</strong></p></div><div class='float: right;'><img src='img/stimuli_stroop_fear.png'></img><p class='small'><strong>Press the F key for faces with fear</strong></p></div></div><p>If the screen turns blank, press <strong>SPACE</strong></p><p><strong>Press any key to begin.</strong></p>","32","html-keyboard-response","8","46518","0.0-8.0","lt28f2","Fri Feb 19 2021 06:33:29 GMT+0100 (Central European Standard Time)","2021","2","19","6","33","29","popper123","24","male","right","50","19","19","0","12","","","","","","","","",""
"null","<div style=""font-size:60px;"">+</div>","null","html-keyboard-response","9","49275","0.0-9.0-0.0","lt28f2","Fri Feb 19 2021 06:33:29 GMT+0100 (Central European Standard Time)","2021","2","19","6","33","29","popper123","24","male","right","50","19","19","0","12","","","","","fixation","","","",""
"903.6900000064634","img/image_stim_f_stroop.png","70","image-keyboard-response","10","50181","0.0-9.0-1.0","lt28f2","Fri Feb 19 2021 06:33:29 GMT+0100 (Central European Standard Time)","2021","2","19","6","33","29","popper123","24","male","right","50","19","19","0","12","","","","","test","fear","happy","f","true"
"null","<div style=""font-size:60px;"">+</div>","null","html-keyboard-response","11","50686","0.0-9.0-0.1","lt28f2","Fri Feb 19 2021 06:33:29 GMT+0100 (Central European Standard Time)","2021","2","19","6","33","29","popper123","24","male","right","50","19","19","0","12","","","","","fixation","","","",""
"557.3999999905936","img/image_stim_f.png","70","image-keyboard-response","12","51245","0.0-9.0-1.1","lt28f2","Fri Feb 19 2021 06:33:29 GMT+0100 (Central European Standard Time)","2021","2","19","6","33","29","popper123","24","male","right","50","19","19","0","12","","","","","test","fear","fear","f","true"
"null","<div style=""font-size:60px;"">+</div>","null","html-keyboard-response","13","53252","0.0-9.0-0.2","lt28f2","Fri Feb 19 2021 06:33:29 GMT+0100 (Central European Standard Time)","2021","2","19","6","33","29","popper123","24","male","right","50","19","19","0","12","","","","","fixation","","","",""
"503.6100000143051","img/image_stim_h_stroop.png","72","image-keyboard-response","14","53757","0.0-9.0-1.2","lt28f2","Fri Feb 19 2021 06:33:29 GMT+0100 (Central European Standard Time)","2021","2","19","6","33","29","popper123","24","male","right","50","19","19","0","12","","","","","test","happy","fear","h","true"
"null","<div style=""font-size:60px;"">+</div>","null","html-keyboard-response","15","54012","0.0-9.0-0.3","lt28f2","Fri Feb 19 2021 06:33:29 GMT+0100 (Central European Standard Time)","2021","2","19","6","33","29","popper123","24","male","right","50","19","19","0","12","","","","","fixation","","","",""
"615.4850000166334","img/image_stim_h.png","72","image-keyboard-response","16","54629","0.0-9.0-1.3","lt28f2","Fri Feb 19 2021 06:33:29 GMT+0100 (Central European Standard Time)","2021","2","19","6","33","29","popper123","24","male","right","50","19","19","0","12","","","","","test","happy","happy","h","true"
"null","<div style=""font-size:60px;"">+</div>","null","html-keyboard-response","17","55634","0.0-9.0-0.4","lt28f2","Fri Feb 19 2021 06:33:29 GMT+0100 (Central European Standard Time)","2021","2","19","6","33","29","popper123","24","male","right","50","19","19","0","12","","","","","fixation","","","",""
"553.7849999964237","img/image_stim_h_stroop.png","72","image-keyboard-response","18","56189","0.0-9.0-1.4","lt28f2","Fri Feb 19 2021 06:33:29 GMT+0100 (Central European Standard Time)","2021","2","19","6","33","29","popper123","24","male","right","50","19","19","0","12","","","","","test","happy","fear","h","true"
"null","<div style=""font-size:60px;"">+</div>","null","html-keyboard-response","19","57441","0.0-9.0-0.5","lt28f2","Fri Feb 19 2021 06:33:29 GMT+0100 (Central European Standard Time)","2021","2","19","6","33","29","popper123","24","male","right","50","19","19","0","12","","","","","fixation","","","",""
"466.77500000805594","img/image_stim_h.png","72","image-keyboard-response","20","57909","0.0-9.0-1.5","lt28f2","Fri Feb 19 2021 06:33:29 GMT+0100 (Central European Standard Time)","2021","2","19","6","33","29","popper123","24","male","right","50","19","19","0","12","","","","","test","happy","happy","h","true"
"null","<div style=""font-size:60px;"">+</div>","null","html-keyboard-response","21","58415","0.0-9.0-0.6","lt28f2","Fri Feb 19 2021 06:33:29 GMT+0100 (Central European Standard Time)","2021","2","19","6","33","29","popper123","24","male","right","50","19","19","0","12","","","","","fixation","","","",""
"540.8999999926891","img/image_stim_f.png","70","image-keyboard-response","22","58957","0.0-9.0-1.6","lt28f2","Fri Feb 19 2021 06:33:29 GMT+0100 (Central European Standard Time)","2021","2","19","6","33","29","popper123","24","male","right","50","19","19","0","12","","","","","test","fear","fear","f","true"
"null","<div style=""font-size:60px;"">+</div>","null","html-keyboard-response","23","60715","0.0-9.0-0.7","lt28f2","Fri Feb 19 2021 06:33:29 GMT+0100 (Central European Standard Time)","2021","2","19","6","33","29","popper123","24","male","right","50","19","19","0","12","","","","","fixation","","","",""
"568.3349999890197","img/image_stim_f_stroop.png","70","image-keyboard-response","24","61285","0.0-9.0-1.7","lt28f2","Fri Feb 19 2021 06:33:29 GMT+0100 (Central European Standard Time)","2021","2","19","6","33","29","popper123","24","male","right","50","19","19","0","12","","","","","test","fear","happy","f","true"
"null","<div style=""font-size:60px;"">+</div>","null","html-keyboard-response","25","61788","0.0-9.0-0.8","lt28f2","Fri Feb 19 2021 06:33:29 GMT+0100 (Central European Standard Time)","2021","2","19","6","33","29","popper123","24","male","right","50","19","19","0","12","","","","","fixation","","","",""
"527.3049999959767","img/image_stim_h.png","72","image-keyboard-response","26","62317","0.0-9.0-1.8","lt28f2","Fri Feb 19 2021 06:33:29 GMT+0100 (Central European Standard Time)","2021","2","19","6","33","29","popper123","24","male","right","50","19","19","0","12","","","","","test","happy","happy","h","true"
"null","<div style=""font-size:60px;"">+</div>","null","html-keyboard-response","27","64323","0.0-9.0-0.9","lt28f2","Fri Feb 19 2021 06:33:29 GMT+0100 (Central European Standard Time)","2021","2","19","6","33","29","popper123","24","male","right","50","19","19","0","12","","","","","fixation","","","",""
"488.17500000586733","img/image_stim_f_stroop.png","70","image-keyboard-response","28","64813","0.0-9.0-1.9","lt28f2","Fri Feb 19 2021 06:33:29 GMT+0100 (Central European Standard Time)","2021","2","19","6","33","29","popper123","24","male","right","50","19","19","0","12","","","","","test","fear","happy","f","true"
"null","<div style=""font-size:60px;"">+</div>","null","html-keyboard-response","29","65818","0.0-9.0-0.10","lt28f2","Fri Feb 19 2021 06:33:29 GMT+0100 (Central European Standard Time)","2021","2","19","6","33","29","popper123","24","male","right","50","19","19","0","12","","","","","fixation","","","",""
"457.33500001369976","img/image_stim_f.png","70","image-keyboard-response","30","66277","0.0-9.0-1.10","lt28f2","Fri Feb 19 2021 06:33:29 GMT+0100 (Central European Standard Time)","2021","2","19","6","33","29","popper123","24","male","right","50","19","19","0","12","","","","","test","fear","fear","f","true"
"null","<div style=""font-size:60px;"">+</div>","null","html-keyboard-response","31","66782","0.0-9.0-0.11","lt28f2","Fri Feb 19 2021 06:33:29 GMT+0100 (Central European Standard Time)","2021","2","19","6","33","29","popper123","24","male","right","50","19","19","0","12","","","","","fixation","","","",""
"685.4499999899417","img/image_stim_h_stroop.png","72","image-keyboard-response","32","67469","0.0-9.0-1.11","lt28f2","Fri Feb 19 2021 06:33:29 GMT+0100 (Central European Standard Time)","2021","2","19","6","33","29","popper123","24","male","right","50","19","19","0","12","","","","","test","happy","fear","h","true"
"null","<div style=""font-size:60px;"">+</div>","null","html-keyboard-response","33","67726","0.0-9.0-0.12","lt28f2","Fri Feb 19 2021 06:33:29 GMT+0100 (Central European Standard Time)","2021","2","19","6","33","29","popper123","24","male","right","50","19","19","0","12","","","","","fixation","","","",""
"733.7750000006054","img/image_stim_f_stroop.png","70","image-keyboard-response","34","68461","0.0-9.0-1.12","lt28f2","Fri Feb 19 2021 06:33:29 GMT+0100 (Central European Standard Time)","2021","2","19","6","33","29","popper123","24","male","right","50","19","19","0","12","","","","","test","fear","happy","f","true"
"null","<div style=""font-size:60px;"">+</div>","null","html-keyboard-response","35","69469","0.0-9.0-0.13","lt28f2","Fri Feb 19 2021 06:33:29 GMT+0100 (Central European Standard Time)","2021","2","19","6","33","29","popper123","24","male","right","50","19","19","0","12","","","","","fixation","","","",""
"568.619999976363","img/image_stim_f.png","70","image-keyboard-response","36","70038","0.0-9.0-1.13","lt28f2","Fri Feb 19 2021 06:33:29 GMT+0100 (Central European Standard Time)","2021","2","19","6","33","29","popper123","24","male","right","50","19","19","0","12","","","","","test","fear","fear","f","true"
"null","<div style=""font-size:60px;"">+</div>","null","html-keyboard-response","37","71044","0.0-9.0-0.14","lt28f2","Fri Feb 19 2021 06:33:29 GMT+0100 (Central European Standard Time)","2021","2","19","6","33","29","popper123","24","male","right","50","19","19","0","12","","","","","fixation","","","",""
"535.6299999984913","img/image_stim_h_stroop.png","72","image-keyboard-response","38","71581","0.0-9.0-1.14","lt28f2","Fri Feb 19 2021 06:33:29 GMT+0100 (Central European Standard Time)","2021","2","19","6","33","29","popper123","24","male","right","50","19","19","0","12","","","","","test","happy","fear","h","true"
"null","<div style=""font-size:60px;"">+</div>","null","html-keyboard-response","39","73588","0.0-9.0-0.15","lt28f2","Fri Feb 19 2021 06:33:29 GMT+0100 (Central European Standard Time)","2021","2","19","6","33","29","popper123","24","male","right","50","19","19","0","12","","","","","fixation","","","",""
"510.9900000097696","img/image_stim_h.png","72","image-keyboard-response","40","74100","0.0-9.0-1.15","lt28f2","Fri Feb 19 2021 06:33:29 GMT+0100 (Central European Standard Time)","2021","2","19","6","33","29","popper123","24","male","right","50","19","19","0","12","","","","","test","happy","happy","h","true"
"null","<div style=""font-size:60px;"">+</div>","null","html-keyboard-response","41","75354","0.0-9.0-0.16","lt28f2","Fri Feb 19 2021 06:33:29 GMT+0100 (Central European Standard Time)","2021","2","19","6","33","29","popper123","24","male","right","50","19","19","0","12","","","","","fixation","","","",""
"424.75000000558794","img/image_stim_h.png","72","image-keyboard-response","42","75780","0.0-9.0-1.16","lt28f2","Fri Feb 19 2021 06:33:29 GMT+0100 (Central European Standard Time)","2021","2","19","6","33","29","popper123","24","male","right","50","19","19","0","12","","","","","test","happy","happy","h","true"
"null","<div style=""font-size:60px;"">+</div>","null","html-keyboard-response","43","77535","0.0-9.0-0.17","lt28f2","Fri Feb 19 2021 06:33:29 GMT+0100 (Central European Standard Time)","2021","2","19","6","33","29","popper123","24","male","right","50","19","19","0","12","","","","","fixation","","","",""
"563.7250000145286","img/image_stim_f_stroop.png","70","image-keyboard-response","44","78100","0.0-9.0-1.17","lt28f2","Fri Feb 19 2021 06:33:29 GMT+0100 (Central European Standard Time)","2021","2","19","6","33","29","popper123","24","male","right","50","19","19","0","12","","","","","test","fear","happy","f","true"
"null","<div style=""font-size:60px;"">+</div>","null","html-keyboard-response","45","79358","0.0-9.0-0.18","lt28f2","Fri Feb 19 2021 06:33:29 GMT+0100 (Central European Standard Time)","2021","2","19","6","33","29","popper123","24","male","right","50","19","19","0","12","","","","","fixation","","","",""
"533.7749999889638","img/image_stim_f.png","70","image-keyboard-response","46","79893","0.0-9.0-1.18","lt28f2","Fri Feb 19 2021 06:33:29 GMT+0100 (Central European Standard Time)","2021","2","19","6","33","29","popper123","24","male","right","50","19","19","0","12","","","","","test","fear","fear","f","true"
"null","<div style=""font-size:60px;"">+</div>","null","html-keyboard-response","47","81651","0.0-9.0-0.19","lt28f2","Fri Feb 19 2021 06:33:29 GMT+0100 (Central European Standard Time)","2021","2","19","6","33","29","popper123","24","male","right","50","19","19","0","12","","","","","fixation","","","",""
"464.414999994915","img/image_stim_h_stroop.png","72","image-keyboard-response","48","82117","0.0-9.0-1.19","lt28f2","Fri Feb 19 2021 06:33:29 GMT+0100 (Central European Standard Time)","2021","2","19","6","33","29","popper123","24","male","right","50","19","19","0","12","","","","","test","happy","fear","h","true"
"null","<div style=""font-size:60px;"">+</div>","null","html-keyboard-response","49","83125","0.0-9.0-0.20","lt28f2","Fri Feb 19 2021 06:33:29 GMT+0100 (Central European Standard Time)","2021","2","19","6","33","29","popper123","24","male","right","50","19","19","0","12","","","","","fixation","","","",""
"534.4249999907333","img/image_stim_h_stroop.png","72","image-keyboard-response","50","83661","0.0-9.0-1.20","lt28f2","Fri Feb 19 2021 06:33:29 GMT+0100 (Central European Standard Time)","2021","2","19","6","33","29","popper123","24","male","right","50","19","19","0","12","","","","","test","happy","fear","h","true"
"null","<div style=""font-size:60px;"">+</div>","null","html-keyboard-response","51","84915","0.0-9.0-0.21","lt28f2","Fri Feb 19 2021 06:33:29 GMT+0100 (Central European Standard Time)","2021","2","19","6","33","29","popper123","24","male","right","50","19","19","0","12","","","","","fixation","","","",""
"448.3100000070408","img/image_stim_h.png","72","image-keyboard-response","52","85364","0.0-9.0-1.21","lt28f2","Fri Feb 19 2021 06:33:29 GMT+0100 (Central European Standard Time)","2021","2","19","6","33","29","popper123","24","male","right","50","19","19","0","12","","","","","test","happy","happy","h","true"
"null","<div style=""font-size:60px;"">+</div>","null","html-keyboard-response","53","87370","0.0-9.0-0.22","lt28f2","Fri Feb 19 2021 06:33:29 GMT+0100 (Central European Standard Time)","2021","2","19","6","33","29","popper123","24","male","right","50","19","19","0","12","","","","","fixation","","","",""
"560.9500000136904","img/image_stim_f_stroop.png","70","image-keyboard-response","54","87932","0.0-9.0-1.22","lt28f2","Fri Feb 19 2021 06:33:29 GMT+0100 (Central European Standard Time)","2021","2","19","6","33","29","popper123","24","male","right","50","19","19","0","12","","","","","test","fear","happy","f","true"
"null","<div style=""font-size:60px;"">+</div>","null","html-keyboard-response","55","88437","0.0-9.0-0.23","lt28f2","Fri Feb 19 2021 06:33:29 GMT+0100 (Central European Standard Time)","2021","2","19","6","33","29","popper123","24","male","right","50","19","19","0","12","","","","","fixation","","","",""
"437.7399999939371","img/image_stim_f.png","70","image-keyboard-response","56","88876","0.0-9.0-1.23","lt28f2","Fri Feb 19 2021 06:33:29 GMT+0100 (Central European Standard Time)","2021","2","19","6","33","29","popper123","24","male","right","50","19","19","0","12","","","","","test","fear","fear","f","true"
"null","<div style=""font-size:60px;"">+</div>","null","html-keyboard-response","57","90130","0.0-9.0-0.24","lt28f2","Fri Feb 19 2021 06:33:29 GMT+0100 (Central European Standard Time)","2021","2","19","6","33","29","popper123","24","male","right","50","19","19","0","12","","","","","fixation","","","",""
"553.6250000004657","img/image_stim_h_stroop.png","72","image-keyboard-response","58","90685","0.0-9.0-1.24","lt28f2","Fri Feb 19 2021 06:33:29 GMT+0100 (Central European Standard Time)","2021","2","19","6","33","29","popper123","24","male","right","50","19","19","0","12","","","","","test","happy","fear","h","true"
"null","<div style=""font-size:60px;"">+</div>","null","html-keyboard-response","59","92694","0.0-9.0-0.25","lt28f2","Fri Feb 19 2021 06:33:29 GMT+0100 (Central European Standard Time)","2021","2","19","6","33","29","popper123","24","male","right","50","19","19","0","12","","","","","fixation","","","",""
"548.7250000005588","img/image_stim_f_stroop.png","70","image-keyboard-response","60","93244","0.0-9.0-1.25","lt28f2","Fri Feb 19 2021 06:33:29 GMT+0100 (Central European Standard Time)","2021","2","19","6","33","29","popper123","24","male","right","50","19","19","0","12","","","","","test","fear","happy","f","true"
"null","<div style=""font-size:60px;"">+</div>","null","html-keyboard-response","61","94752","0.0-9.0-0.26","lt28f2","Fri Feb 19 2021 06:33:29 GMT+0100 (Central European Standard Time)","2021","2","19","6","33","29","popper123","24","male","right","50","19","19","0","12","","","","","fixation","","","",""
"402.96000000671484","img/image_stim_h.png","70","image-keyboard-response","62","95156","0.0-9.0-1.26","lt28f2","Fri Feb 19 2021 06:33:29 GMT+0100 (Central European Standard Time)","2021","2","19","6","33","29","popper123","24","male","right","50","19","19","0","12","","","","","test","happy","happy","h","false"
"null","<div style=""font-size:60px;"">+</div>","null","html-keyboard-response","63","97165","0.0-9.0-0.27","lt28f2","Fri Feb 19 2021 06:33:29 GMT+0100 (Central European Standard Time)","2021","2","19","6","33","29","popper123","24","male","right","50","19","19","0","12","","","","","fixation","","","",""
"590.1700000104029","img/image_stim_f.png","70","image-keyboard-response","64","97756","0.0-9.0-1.27","lt28f2","Fri Feb 19 2021 06:33:29 GMT+0100 (Central European Standard Time)","2021","2","19","6","33","29","popper123","24","male","right","50","19","19","0","12","","","","","test","fear","fear","f","true"
"null","<div style=""font-size:60px;"">+</div>","null","html-keyboard-response","65","98261","0.0-9.0-0.28","lt28f2","Fri Feb 19 2021 06:33:29 GMT+0100 (Central European Standard Time)","2021","2","19","6","33","29","popper123","24","male","right","50","19","19","0","12","","","","","fixation","","","",""
"429.32999998447485","img/image_stim_f_stroop.png","70","image-keyboard-response","66","98692","0.0-9.0-1.28","lt28f2","Fri Feb 19 2021 06:33:29 GMT+0100 (Central European Standard Time)","2021","2","19","6","33","29","popper123","24","male","right","50","19","19","0","12","","","","","test","fear","happy","f","true"
"null","<div style=""font-size:60px;"">+</div>","null","html-keyboard-response","67","99696","0.0-9.0-0.29","lt28f2","Fri Feb 19 2021 06:33:29 GMT+0100 (Central European Standard Time)","2021","2","19","6","33","29","popper123","24","male","right","50","19","19","0","12","","","","","fixation","","","",""
"434.2550000001211","img/image_stim_f.png","70","image-keyboard-response","68","100132","0.0-9.0-1.29","lt28f2","Fri Feb 19 2021 06:33:29 GMT+0100 (Central European Standard Time)","2021","2","19","6","33","29","popper123","24","male","right","50","19","19","0","12","","","","","test","fear","fear","f","true"
"null","<div style=""font-size:60px;"">+</div>","null","html-keyboard-response","69","102138","0.0-9.0-0.30","lt28f2","Fri Feb 19 2021 06:33:29 GMT+0100 (Central European Standard Time)","2021","2","19","6","33","29","popper123","24","male","right","50","19","19","0","12","","","","","fixation","","","",""
"408.62500001094304","img/image_stim_h_stroop.png","72","image-keyboard-response","70","102548","0.0-9.0-1.30","lt28f2","Fri Feb 19 2021 06:33:29 GMT+0100 (Central European Standard Time)","2021","2","19","6","33","29","popper123","24","male","right","50","19","19","0","12","","","","","test","happy","fear","h","true"
"null","<div style=""font-size:60px;"">+</div>","null","html-keyboard-response","71","104056","0.0-9.0-0.31","lt28f2","Fri Feb 19 2021 06:33:29 GMT+0100 (Central European Standard Time)","2021","2","19","6","33","29","popper123","24","male","right","50","19","19","0","12","","","","","fixation","","","",""
"442.61500000720844","img/image_stim_h.png","72","image-keyboard-response","72","104500","0.0-9.0-1.31","lt28f2","Fri Feb 19 2021 06:33:29 GMT+0100 (Central European Standard Time)","2021","2","19","6","33","29","popper123","24","male","right","50","19","19","0","12","","","","","test","happy","happy","h","true"
"null","<div style=""font-size:60px;"">+</div>","null","html-keyboard-response","73","106255","0.0-9.0-0.32","lt28f2","Fri Feb 19 2021 06:33:29 GMT+0100 (Central European Standard Time)","2021","2","19","6","33","29","popper123","24","male","right","50","19","19","0","12","","","","","fixation","","","",""
"443.425000004936","img/image_stim_h_stroop.png","72","image-keyboard-response","74","106700","0.0-9.0-1.32","lt28f2","Fri Feb 19 2021 06:33:29 GMT+0100 (Central European Standard Time)","2021","2","19","6","33","29","popper123","24","male","right","50","19","19","0","12","","","","","test","happy","fear","h","true"
"null","<div style=""font-size:60px;"">+</div>","null","html-keyboard-response","75","108708","0.0-9.0-0.33","lt28f2","Fri Feb 19 2021 06:33:29 GMT+0100 (Central European Standard Time)","2021","2","19","6","33","29","popper123","24","male","right","50","19","19","0","12","","","","","fixation","","","",""
"454.25999999861233","img/image_stim_h.png","72","image-keyboard-response","76","109164","0.0-9.0-1.33","lt28f2","Fri Feb 19 2021 06:33:29 GMT+0100 (Central European Standard Time)","2021","2","19","6","33","29","popper123","24","male","right","50","19","19","0","12","","","","","test","happy","happy","h","true"
"null","<div style=""font-size:60px;"">+</div>","null","html-keyboard-response","77","110420","0.0-9.0-0.34","lt28f2","Fri Feb 19 2021 06:33:29 GMT+0100 (Central European Standard Time)","2021","2","19","6","33","29","popper123","24","male","right","50","19","19","0","12","","","","","fixation","","","",""
"493.9650000014808","img/image_stim_f_stroop.png","70","image-keyboard-response","78","110916","0.0-9.0-1.34","lt28f2","Fri Feb 19 2021 06:33:29 GMT+0100 (Central European Standard Time)","2021","2","19","6","33","29","popper123","24","male","right","50","19","19","0","12","","","","","test","fear","happy","f","true"
"null","<div style=""font-size:60px;"">+</div>","null","html-keyboard-response","79","112174","0.0-9.0-0.35","lt28f2","Fri Feb 19 2021 06:33:29 GMT+0100 (Central European Standard Time)","2021","2","19","6","33","29","popper123","24","male","right","50","19","19","0","12","","","","","fixation","","","",""
"421.60500001045875","img/image_stim_f.png","70","image-keyboard-response","80","112596","0.0-9.0-1.35","lt28f2","Fri Feb 19 2021 06:33:29 GMT+0100 (Central European Standard Time)","2021","2","19","6","33","29","popper123","24","male","right","50","19","19","0","12","","","","","test","fear","fear","f","true"
