"rt","stimulus","key_press","trial_type","trial_index","time_elapsed","internal_node_id","exp_id","Time","year","month","date","hour","minute","seconds","id","age","Gender","Handedness","mood","fresh","hunger","H_since_Sleep","H_since_Eat","responses","question_order","slider_start","response","test_part","face","word","correct_response","correct"
"666","<p>Welcome to this experiment on daily rhythms and cognition.</p><p>First you will be asked some questions about yourself.</p><p>Then a short experiment will measure your response time.</p><p>Take the test at different times of the day/night.</p><p>The test is anonymous, but comparing your data across time is important.</p><p>Therefore, please make up and remember a personal ID (two letters+ two numbers).</p><p>Use this ID whenever taking the test.</p><p><strong>Press any key to begin.</strong></p>","32","html-keyboard-response","0","670","0.0-0.0","1gygnk","Mon Feb 15 2021 10:06:20 GMT+0100 (CET)","2021","2","15","10","6","20","lp99","21","female","right","65","65","96","1","0","","","","","","","","",""
"2883.0000000000005","","","survey-text","1","3579","0.0-1.0","1gygnk","Mon Feb 15 2021 10:06:20 GMT+0100 (CET)","2021","2","15","10","6","20","lp99","21","female","right","65","65","96","1","0","{""Q0"":""lp99""}","","","","","","","",""
"2602","","","survey-text","2","6187","0.0-2.0","1gygnk","Mon Feb 15 2021 10:06:20 GMT+0100 (CET)","2021","2","15","10","6","20","lp99","21","female","right","65","65","96","1","0","{""Q0"":""21""}","","","","","","","",""
"2778","","","survey-multi-select","3","8967","0.0-3.0","1gygnk","Mon Feb 15 2021 10:06:20 GMT+0100 (CET)","2021","2","15","10","6","20","lp99","21","female","right","65","65","96","1","0","{""Gender"":[""female""],""Hand"":[""right""]}","[0,1]","","","","","","",""
"4268","<p>How Sad/Angry or Happy are you right now?</p>","","html-slider-response","4","13237","0.0-4.0","1gygnk","Mon Feb 15 2021 10:06:20 GMT+0100 (CET)","2021","2","15","10","6","20","lp99","21","female","right","65","65","96","1","0","","","50","65","","","","",""
"8294","<p>How Tired/Sleepy/Distracted or Fresh/Awake/Alert are you right now?</p>","","html-slider-response","5","21532","0.0-5.0","1gygnk","Mon Feb 15 2021 10:06:20 GMT+0100 (CET)","2021","2","15","10","6","20","lp99","21","female","right","65","65","96","1","0","","","50","65","","","","",""
"4088.9999999999964","<p>How Hungry or Satiated are you right now?</p>","","html-slider-response","6","25622","0.0-6.0","1gygnk","Mon Feb 15 2021 10:06:20 GMT+0100 (CET)","2021","2","15","10","6","20","lp99","21","female","right","65","65","96","1","0","","","50","96","","","","",""
"7682","","","survey-multi-select","7","33321","0.0-7.0","1gygnk","Mon Feb 15 2021 10:06:20 GMT+0100 (CET)","2021","2","15","10","6","20","lp99","21","female","right","65","65","96","1","0","{""Sleep"":[""1""],""Eat"":[""0""]}","[0,1]","","","","","","",""
"4358.000000000007","<p>In this experiment, a face and a word will appear in the center of the screen.</p><p>If the face is <strong>happy</strong>, press the letter <strong>H</strong> with <strong>right</strong> index finger.</p><p>If the face is <strong>fearful</strong>, press the letter <strong>F</strong> with <strong>left</strong> index finger.</p><p><strong>Ignore the written words</strong>. Respond as fast as possible while being correct. </p><div style='width: 900px;'><div style='float: left;'><img src='img/stimuli_stroop_happy.png'></img><p class='small'><strong>Press the H key for happy faces</strong></p></div><div class='float: right;'><img src='img/stimuli_stroop_fear.png'></img><p class='small'><strong>Press the F key for faces with fear</strong></p></div></div><p>If the screen turns blank, press <strong>SPACE</strong></p><p><strong>Press any key to begin.</strong></p>","72","html-keyboard-response","8","37681","0.0-8.0","1gygnk","Mon Feb 15 2021 10:06:20 GMT+0100 (CET)","2021","2","15","10","6","20","lp99","21","female","right","65","65","96","1","0","","","","","","","","",""
"null","<div style=""font-size:60px;"">+</div>","null","html-keyboard-response","9","39934","0.0-9.0-0.0","1gygnk","Mon Feb 15 2021 10:06:20 GMT+0100 (CET)","2021","2","15","10","6","20","lp99","21","female","right","65","65","96","1","0","","","","","fixation","","","",""
"658","img/image_stim_f_stroop.png","72","image-keyboard-response","10","40596","0.0-9.0-1.0","1gygnk","Mon Feb 15 2021 10:06:20 GMT+0100 (CET)","2021","2","15","10","6","20","lp99","21","female","right","65","65","96","1","0","","","","","test","fear","happy","f","false"
"null","<div style=""font-size:60px;"">+</div>","null","html-keyboard-response","11","42101","0.0-9.0-0.1","1gygnk","Mon Feb 15 2021 10:06:20 GMT+0100 (CET)","2021","2","15","10","6","20","lp99","21","female","right","65","65","96","1","0","","","","","fixation","","","",""
"749","img/image_stim_h_stroop.png","72","image-keyboard-response","12","42852","0.0-9.0-1.1","1gygnk","Mon Feb 15 2021 10:06:20 GMT+0100 (CET)","2021","2","15","10","6","20","lp99","21","female","right","65","65","96","1","0","","","","","test","happy","fear","h","true"
"null","<div style=""font-size:60px;"">+</div>","null","html-keyboard-response","13","44107","0.0-9.0-0.2","1gygnk","Mon Feb 15 2021 10:06:20 GMT+0100 (CET)","2021","2","15","10","6","20","lp99","21","female","right","65","65","96","1","0","","","","","fixation","","","",""
"515","img/image_stim_h.png","72","image-keyboard-response","14","44624","0.0-9.0-1.2","1gygnk","Mon Feb 15 2021 10:06:20 GMT+0100 (CET)","2021","2","15","10","6","20","lp99","21","female","right","65","65","96","1","0","","","","","test","happy","happy","h","true"
"null","<div style=""font-size:60px;"">+</div>","null","html-keyboard-response","15","46129","0.0-9.0-0.3","1gygnk","Mon Feb 15 2021 10:06:20 GMT+0100 (CET)","2021","2","15","10","6","20","lp99","21","female","right","65","65","96","1","0","","","","","fixation","","","",""
"689.9999999999927","img/image_stim_f.png","70","image-keyboard-response","16","46821","0.0-9.0-1.3","1gygnk","Mon Feb 15 2021 10:06:20 GMT+0100 (CET)","2021","2","15","10","6","20","lp99","21","female","right","65","65","96","1","0","","","","","test","fear","fear","f","true"
"null","<div style=""font-size:60px;"">+</div>","null","html-keyboard-response","17","48826","0.0-9.0-0.4","1gygnk","Mon Feb 15 2021 10:06:20 GMT+0100 (CET)","2021","2","15","10","6","20","lp99","21","female","right","65","65","96","1","0","","","","","fixation","","","",""
"531","img/image_stim_f.png","70","image-keyboard-response","18","49359","0.0-9.0-1.4","1gygnk","Mon Feb 15 2021 10:06:20 GMT+0100 (CET)","2021","2","15","10","6","20","lp99","21","female","right","65","65","96","1","0","","","","","test","fear","fear","f","true"
"null","<div style=""font-size:60px;"">+</div>","null","html-keyboard-response","19","50863","0.0-9.0-0.5","1gygnk","Mon Feb 15 2021 10:06:20 GMT+0100 (CET)","2021","2","15","10","6","20","lp99","21","female","right","65","65","96","1","0","","","","","fixation","","","",""
"522","img/image_stim_h.png","72","image-keyboard-response","20","51387","0.0-9.0-1.5","1gygnk","Mon Feb 15 2021 10:06:20 GMT+0100 (CET)","2021","2","15","10","6","20","lp99","21","female","right","65","65","96","1","0","","","","","test","happy","happy","h","true"
"null","<div style=""font-size:60px;"">+</div>","null","html-keyboard-response","21","53141","0.0-9.0-0.6","1gygnk","Mon Feb 15 2021 10:06:20 GMT+0100 (CET)","2021","2","15","10","6","20","lp99","21","female","right","65","65","96","1","0","","","","","fixation","","","",""
"866","img/image_stim_h_stroop.png","72","image-keyboard-response","22","54009","0.0-9.0-1.6","1gygnk","Mon Feb 15 2021 10:06:20 GMT+0100 (CET)","2021","2","15","10","6","20","lp99","21","female","right","65","65","96","1","0","","","","","test","happy","fear","h","true"
"null","<div style=""font-size:60px;"">+</div>","null","html-keyboard-response","23","56013","0.0-9.0-0.7","1gygnk","Mon Feb 15 2021 10:06:20 GMT+0100 (CET)","2021","2","15","10","6","20","lp99","21","female","right","65","65","96","1","0","","","","","fixation","","","",""
"655","img/image_stim_f_stroop.png","70","image-keyboard-response","24","56669","0.0-9.0-1.7","1gygnk","Mon Feb 15 2021 10:06:20 GMT+0100 (CET)","2021","2","15","10","6","20","lp99","21","female","right","65","65","96","1","0","","","","","test","fear","happy","f","true"
"null","<div style=""font-size:60px;"">+</div>","null","html-keyboard-response","25","56923","0.0-9.0-0.8","1gygnk","Mon Feb 15 2021 10:06:20 GMT+0100 (CET)","2021","2","15","10","6","20","lp99","21","female","right","65","65","96","1","0","","","","","fixation","","","",""
"604","img/image_stim_f_stroop.png","70","image-keyboard-response","26","57529","0.0-9.0-1.8","1gygnk","Mon Feb 15 2021 10:06:20 GMT+0100 (CET)","2021","2","15","10","6","20","lp99","21","female","right","65","65","96","1","0","","","","","test","fear","happy","f","true"
"null","<div style=""font-size:60px;"">+</div>","null","html-keyboard-response","27","59532","0.0-9.0-0.9","1gygnk","Mon Feb 15 2021 10:06:20 GMT+0100 (CET)","2021","2","15","10","6","20","lp99","21","female","right","65","65","96","1","0","","","","","fixation","","","",""
"620","img/image_stim_h.png","72","image-keyboard-response","28","60155","0.0-9.0-1.9","1gygnk","Mon Feb 15 2021 10:06:20 GMT+0100 (CET)","2021","2","15","10","6","20","lp99","21","female","right","65","65","96","1","0","","","","","test","happy","happy","h","true"
"null","<div style=""font-size:60px;"">+</div>","null","html-keyboard-response","29","60909","0.0-9.0-0.10","1gygnk","Mon Feb 15 2021 10:06:20 GMT+0100 (CET)","2021","2","15","10","6","20","lp99","21","female","right","65","65","96","1","0","","","","","fixation","","","",""
"582","img/image_stim_h_stroop.png","72","image-keyboard-response","30","61494","0.0-9.0-1.10","1gygnk","Mon Feb 15 2021 10:06:20 GMT+0100 (CET)","2021","2","15","10","6","20","lp99","21","female","right","65","65","96","1","0","","","","","test","happy","fear","h","true"
"null","<div style=""font-size:60px;"">+</div>","null","html-keyboard-response","31","62498","0.0-9.0-0.11","1gygnk","Mon Feb 15 2021 10:06:20 GMT+0100 (CET)","2021","2","15","10","6","20","lp99","21","female","right","65","65","96","1","0","","","","","fixation","","","",""
"532","img/image_stim_f.png","70","image-keyboard-response","32","63032","0.0-9.0-1.11","1gygnk","Mon Feb 15 2021 10:06:20 GMT+0100 (CET)","2021","2","15","10","6","20","lp99","21","female","right","65","65","96","1","0","","","","","test","fear","fear","f","true"
"null","<div style=""font-size:60px;"">+</div>","null","html-keyboard-response","33","63536","0.0-9.0-0.12","1gygnk","Mon Feb 15 2021 10:06:20 GMT+0100 (CET)","2021","2","15","10","6","20","lp99","21","female","right","65","65","96","1","0","","","","","fixation","","","",""
"540","img/image_stim_h_stroop.png","72","image-keyboard-response","34","64079","0.0-9.0-1.12","1gygnk","Mon Feb 15 2021 10:06:20 GMT+0100 (CET)","2021","2","15","10","6","20","lp99","21","female","right","65","65","96","1","0","","","","","test","happy","fear","h","true"
"null","<div style=""font-size:60px;"">+</div>","null","html-keyboard-response","35","65584","0.0-9.0-0.13","1gygnk","Mon Feb 15 2021 10:06:20 GMT+0100 (CET)","2021","2","15","10","6","20","lp99","21","female","right","65","65","96","1","0","","","","","fixation","","","",""
"610","img/image_stim_h.png","72","image-keyboard-response","36","66197","0.0-9.0-1.13","1gygnk","Mon Feb 15 2021 10:06:20 GMT+0100 (CET)","2021","2","15","10","6","20","lp99","21","female","right","65","65","96","1","0","","","","","test","happy","happy","h","true"
"null","<div style=""font-size:60px;"">+</div>","null","html-keyboard-response","37","66701","0.0-9.0-0.14","1gygnk","Mon Feb 15 2021 10:06:20 GMT+0100 (CET)","2021","2","15","10","6","20","lp99","21","female","right","65","65","96","1","0","","","","","fixation","","","",""
"628","img/image_stim_f.png","70","image-keyboard-response","38","67332","0.0-9.0-1.14","1gygnk","Mon Feb 15 2021 10:06:20 GMT+0100 (CET)","2021","2","15","10","6","20","lp99","21","female","right","65","65","96","1","0","","","","","test","fear","fear","f","true"
"null","<div style=""font-size:60px;"">+</div>","null","html-keyboard-response","39","69085","0.0-9.0-0.15","1gygnk","Mon Feb 15 2021 10:06:20 GMT+0100 (CET)","2021","2","15","10","6","20","lp99","21","female","right","65","65","96","1","0","","","","","fixation","","","",""
"1948","img/image_stim_f_stroop.png","70","image-keyboard-response","40","71035","0.0-9.0-1.15","1gygnk","Mon Feb 15 2021 10:06:20 GMT+0100 (CET)","2021","2","15","10","6","20","lp99","21","female","right","65","65","96","1","0","","","","","test","fear","happy","f","true"
"null","<div style=""font-size:60px;"">+</div>","null","html-keyboard-response","41","72540","0.0-9.0-0.16","1gygnk","Mon Feb 15 2021 10:06:20 GMT+0100 (CET)","2021","2","15","10","6","20","lp99","21","female","right","65","65","96","1","0","","","","","fixation","","","",""
"793.9999999999854","img/image_stim_f.png","70","image-keyboard-response","42","73336","0.0-9.0-1.16","1gygnk","Mon Feb 15 2021 10:06:20 GMT+0100 (CET)","2021","2","15","10","6","20","lp99","21","female","right","65","65","96","1","0","","","","","test","fear","fear","f","true"
"null","<div style=""font-size:60px;"">+</div>","null","html-keyboard-response","43","73841","0.0-9.0-0.17","1gygnk","Mon Feb 15 2021 10:06:20 GMT+0100 (CET)","2021","2","15","10","6","20","lp99","21","female","right","65","65","96","1","0","","","","","fixation","","","",""
"1212","img/image_stim_h_stroop.png","72","image-keyboard-response","44","75056","0.0-9.0-1.17","1gygnk","Mon Feb 15 2021 10:06:20 GMT+0100 (CET)","2021","2","15","10","6","20","lp99","21","female","right","65","65","96","1","0","","","","","test","happy","fear","h","true"
"null","<div style=""font-size:60px;"">+</div>","null","html-keyboard-response","45","75311","0.0-9.0-0.18","1gygnk","Mon Feb 15 2021 10:06:20 GMT+0100 (CET)","2021","2","15","10","6","20","lp99","21","female","right","65","65","96","1","0","","","","","fixation","","","",""
"1004","img/image_stim_f_stroop.png","70","image-keyboard-response","46","76317","0.0-9.0-1.18","1gygnk","Mon Feb 15 2021 10:06:20 GMT+0100 (CET)","2021","2","15","10","6","20","lp99","21","female","right","65","65","96","1","0","","","","","test","fear","happy","f","true"
"null","<div style=""font-size:60px;"">+</div>","null","html-keyboard-response","47","78072","0.0-9.0-0.19","1gygnk","Mon Feb 15 2021 10:06:20 GMT+0100 (CET)","2021","2","15","10","6","20","lp99","21","female","right","65","65","96","1","0","","","","","fixation","","","",""
"416","img/image_stim_h.png","72","image-keyboard-response","48","78489","0.0-9.0-1.19","1gygnk","Mon Feb 15 2021 10:06:20 GMT+0100 (CET)","2021","2","15","10","6","20","lp99","21","female","right","65","65","96","1","0","","","","","test","happy","happy","h","true"
"null","<div style=""font-size:60px;"">+</div>","null","html-keyboard-response","49","80494","0.0-9.0-0.20","1gygnk","Mon Feb 15 2021 10:06:20 GMT+0100 (CET)","2021","2","15","10","6","20","lp99","21","female","right","65","65","96","1","0","","","","","fixation","","","",""
"496","img/image_stim_f.png","70","image-keyboard-response","50","80992","0.0-9.0-1.20","1gygnk","Mon Feb 15 2021 10:06:20 GMT+0100 (CET)","2021","2","15","10","6","20","lp99","21","female","right","65","65","96","1","0","","","","","test","fear","fear","f","true"
"null","<div style=""font-size:60px;"">+</div>","null","html-keyboard-response","51","82247","0.0-9.0-0.21","1gygnk","Mon Feb 15 2021 10:06:20 GMT+0100 (CET)","2021","2","15","10","6","20","lp99","21","female","right","65","65","96","1","0","","","","","fixation","","","",""
"670","img/image_stim_h_stroop.png","72","image-keyboard-response","52","82919","0.0-9.0-1.21","1gygnk","Mon Feb 15 2021 10:06:20 GMT+0100 (CET)","2021","2","15","10","6","20","lp99","21","female","right","65","65","96","1","0","","","","","test","happy","fear","h","true"
"null","<div style=""font-size:60px;"">+</div>","null","html-keyboard-response","53","84172","0.0-9.0-0.22","1gygnk","Mon Feb 15 2021 10:06:20 GMT+0100 (CET)","2021","2","15","10","6","20","lp99","21","female","right","65","65","96","1","0","","","","","fixation","","","",""
"599","img/image_stim_f_stroop.png","70","image-keyboard-response","54","84773","0.0-9.0-1.22","1gygnk","Mon Feb 15 2021 10:06:20 GMT+0100 (CET)","2021","2","15","10","6","20","lp99","21","female","right","65","65","96","1","0","","","","","test","fear","happy","f","true"
"null","<div style=""font-size:60px;"">+</div>","null","html-keyboard-response","55","86528","0.0-9.0-0.23","1gygnk","Mon Feb 15 2021 10:06:20 GMT+0100 (CET)","2021","2","15","10","6","20","lp99","21","female","right","65","65","96","1","0","","","","","fixation","","","",""
"464.99999999998545","img/image_stim_h.png","72","image-keyboard-response","56","86995","0.0-9.0-1.23","1gygnk","Mon Feb 15 2021 10:06:20 GMT+0100 (CET)","2021","2","15","10","6","20","lp99","21","female","right","65","65","96","1","0","","","","","test","happy","happy","h","true"
"null","<div style=""font-size:60px;"">+</div>","null","html-keyboard-response","57","88000","0.0-9.0-0.24","1gygnk","Mon Feb 15 2021 10:06:20 GMT+0100 (CET)","2021","2","15","10","6","20","lp99","21","female","right","65","65","96","1","0","","","","","fixation","","","",""
"449","img/image_stim_f_stroop.png","70","image-keyboard-response","58","88451","0.0-9.0-1.24","1gygnk","Mon Feb 15 2021 10:06:20 GMT+0100 (CET)","2021","2","15","10","6","20","lp99","21","female","right","65","65","96","1","0","","","","","test","fear","happy","f","true"
"null","<div style=""font-size:60px;"">+</div>","null","html-keyboard-response","59","89206","0.0-9.0-0.25","1gygnk","Mon Feb 15 2021 10:06:20 GMT+0100 (CET)","2021","2","15","10","6","20","lp99","21","female","right","65","65","96","1","0","","","","","fixation","","","",""
"348","img/image_stim_f.png","72","image-keyboard-response","60","89556","0.0-9.0-1.25","1gygnk","Mon Feb 15 2021 10:06:20 GMT+0100 (CET)","2021","2","15","10","6","20","lp99","21","female","right","65","65","96","1","0","","","","","test","fear","fear","f","false"
"null","<div style=""font-size:60px;"">+</div>","null","html-keyboard-response","61","90311","0.0-9.0-0.26","1gygnk","Mon Feb 15 2021 10:06:20 GMT+0100 (CET)","2021","2","15","10","6","20","lp99","21","female","right","65","65","96","1","0","","","","","fixation","","","",""
"465.99999999998545","img/image_stim_h.png","72","image-keyboard-response","62","90779","0.0-9.0-1.26","1gygnk","Mon Feb 15 2021 10:06:20 GMT+0100 (CET)","2021","2","15","10","6","20","lp99","21","female","right","65","65","96","1","0","","","","","test","happy","happy","h","true"
"null","<div style=""font-size:60px;"">+</div>","null","html-keyboard-response","63","91284","0.0-9.0-0.27","1gygnk","Mon Feb 15 2021 10:06:20 GMT+0100 (CET)","2021","2","15","10","6","20","lp99","21","female","right","65","65","96","1","0","","","","","fixation","","","",""
"647.9999999999854","img/image_stim_h_stroop.png","72","image-keyboard-response","64","91934","0.0-9.0-1.27","1gygnk","Mon Feb 15 2021 10:06:20 GMT+0100 (CET)","2021","2","15","10","6","20","lp99","21","female","right","65","65","96","1","0","","","","","test","happy","fear","h","true"
"null","<div style=""font-size:60px;"">+</div>","null","html-keyboard-response","65","93690","0.0-9.0-0.28","1gygnk","Mon Feb 15 2021 10:06:20 GMT+0100 (CET)","2021","2","15","10","6","20","lp99","21","female","right","65","65","96","1","0","","","","","fixation","","","",""
"1024","img/image_stim_h_stroop.png","72","image-keyboard-response","66","94715","0.0-9.0-1.28","1gygnk","Mon Feb 15 2021 10:06:20 GMT+0100 (CET)","2021","2","15","10","6","20","lp99","21","female","right","65","65","96","1","0","","","","","test","happy","fear","h","true"
"null","<div style=""font-size:60px;"">+</div>","null","html-keyboard-response","67","94969","0.0-9.0-0.29","1gygnk","Mon Feb 15 2021 10:06:20 GMT+0100 (CET)","2021","2","15","10","6","20","lp99","21","female","right","65","65","96","1","0","","","","","fixation","","","",""
"980","img/image_stim_h.png","72","image-keyboard-response","68","95952","0.0-9.0-1.29","1gygnk","Mon Feb 15 2021 10:06:20 GMT+0100 (CET)","2021","2","15","10","6","20","lp99","21","female","right","65","65","96","1","0","","","","","test","happy","happy","h","true"
"null","<div style=""font-size:60px;"">+</div>","null","html-keyboard-response","69","97457","0.0-9.0-0.30","1gygnk","Mon Feb 15 2021 10:06:20 GMT+0100 (CET)","2021","2","15","10","6","20","lp99","21","female","right","65","65","96","1","0","","","","","fixation","","","",""
"576","img/image_stim_f.png","70","image-keyboard-response","70","98036","0.0-9.0-1.30","1gygnk","Mon Feb 15 2021 10:06:20 GMT+0100 (CET)","2021","2","15","10","6","20","lp99","21","female","right","65","65","96","1","0","","","","","test","fear","fear","f","true"
"null","<div style=""font-size:60px;"">+</div>","null","html-keyboard-response","71","99792","0.0-9.0-0.31","1gygnk","Mon Feb 15 2021 10:06:20 GMT+0100 (CET)","2021","2","15","10","6","20","lp99","21","female","right","65","65","96","1","0","","","","","fixation","","","",""
"533","img/image_stim_f_stroop.png","72","image-keyboard-response","72","100328","0.0-9.0-1.31","1gygnk","Mon Feb 15 2021 10:06:20 GMT+0100 (CET)","2021","2","15","10","6","20","lp99","21","female","right","65","65","96","1","0","","","","","test","fear","happy","f","false"
"null","<div style=""font-size:60px;"">+</div>","null","html-keyboard-response","73","101084","0.0-9.0-0.32","1gygnk","Mon Feb 15 2021 10:06:20 GMT+0100 (CET)","2021","2","15","10","6","20","lp99","21","female","right","65","65","96","1","0","","","","","fixation","","","",""
"622","img/image_stim_f.png","70","image-keyboard-response","74","101707","0.0-9.0-1.32","1gygnk","Mon Feb 15 2021 10:06:20 GMT+0100 (CET)","2021","2","15","10","6","20","lp99","21","female","right","65","65","96","1","0","","","","","test","fear","fear","f","true"
"null","<div style=""font-size:60px;"">+</div>","null","html-keyboard-response","75","102463","0.0-9.0-0.33","1gygnk","Mon Feb 15 2021 10:06:20 GMT+0100 (CET)","2021","2","15","10","6","20","lp99","21","female","right","65","65","96","1","0","","","","","fixation","","","",""
"736","img/image_stim_h_stroop.png","72","image-keyboard-response","76","103201","0.0-9.0-1.33","1gygnk","Mon Feb 15 2021 10:06:20 GMT+0100 (CET)","2021","2","15","10","6","20","lp99","21","female","right","65","65","96","1","0","","","","","test","happy","fear","h","true"
"null","<div style=""font-size:60px;"">+</div>","null","html-keyboard-response","77","104957","0.0-9.0-0.34","1gygnk","Mon Feb 15 2021 10:06:20 GMT+0100 (CET)","2021","2","15","10","6","20","lp99","21","female","right","65","65","96","1","0","","","","","fixation","","","",""
"633","img/image_stim_h.png","72","image-keyboard-response","78","105592","0.0-9.0-1.34","1gygnk","Mon Feb 15 2021 10:06:20 GMT+0100 (CET)","2021","2","15","10","6","20","lp99","21","female","right","65","65","96","1","0","","","","","test","happy","happy","h","true"
"null","<div style=""font-size:60px;"">+</div>","null","html-keyboard-response","79","106347","0.0-9.0-0.35","1gygnk","Mon Feb 15 2021 10:06:20 GMT+0100 (CET)","2021","2","15","10","6","20","lp99","21","female","right","65","65","96","1","0","","","","","fixation","","","",""
"548.0000000000146","img/image_stim_f_stroop.png","70","image-keyboard-response","80","106896","0.0-9.0-1.35","1gygnk","Mon Feb 15 2021 10:06:20 GMT+0100 (CET)","2021","2","15","10","6","20","lp99","21","female","right","65","65","96","1","0","","","","","test","fear","happy","f","true"
