"rt","stimulus","key_press","trial_type","trial_index","time_elapsed","internal_node_id","exp_id","Time","year","month","date","hour","minute","seconds","id","age","Gender","Handedness","mood","fresh","hunger","H_since_Sleep","H_since_Eat","responses","question_order","slider_start","response","test_part","face","word","correct_response","correct"
"2052.8599999961443","<p>Welcome to this experiment on daily rhythms and cognition.</p><p>First you will be asked some questions about yourself.</p><p>Then a short experiment will measure your response time.</p><p>Take the test at different times of the day/night.</p><p>The test is anonymous, but comparing your data across time is important.</p><p>Therefore, please make up and remember a personal ID (two letters+ two numbers).</p><p>Use this ID whenever taking the test.</p><p><strong>Press any key to begin.</strong></p>","32","html-keyboard-response","0","2054","0.0-0.0","lpqavz","Tue Feb 09 2021 01:35:53 GMT+0100 (Central European Standard Time)","2021","2","9","1","35","53","mw73","47","male","right","69","16","56","19","4","","","","","","","","",""
"5887.635000050068","","","survey-text","1","7944","0.0-1.0","lpqavz","Tue Feb 09 2021 01:35:53 GMT+0100 (Central European Standard Time)","2021","2","9","1","35","53","mw73","47","male","right","69","16","56","19","4","{""Q0"":""mw73""}","","","","","","","",""
"3055.1400000113063","","","survey-text","2","11000","0.0-2.0","lpqavz","Tue Feb 09 2021 01:35:53 GMT+0100 (Central European Standard Time)","2021","2","9","1","35","53","mw73","47","male","right","69","16","56","19","4","{""Q0"":""47""}","","","","","","","",""
"3314.5800000056624","","","survey-multi-select","3","14318","0.0-3.0","lpqavz","Tue Feb 09 2021 01:35:53 GMT+0100 (Central European Standard Time)","2021","2","9","1","35","53","mw73","47","male","right","69","16","56","19","4","{""Gender"":[""male""],""Hand"":[""right""]}","[0,1]","","","","","","",""
"4270.550000015646","<p>How Sad/Angry or Happy are you right now?</p>","","html-slider-response","4","18590","0.0-4.0","lpqavz","Tue Feb 09 2021 01:35:53 GMT+0100 (Central European Standard Time)","2021","2","9","1","35","53","mw73","47","male","right","69","16","56","19","4","","","50","69","","","","",""
"4346.499999985099","<p>How Tired/Sleepy/Distracted or Fresh/Awake/Alert are you right now?</p>","","html-slider-response","5","22937","0.0-5.0","lpqavz","Tue Feb 09 2021 01:35:53 GMT+0100 (Central European Standard Time)","2021","2","9","1","35","53","mw73","47","male","right","69","16","56","19","4","","","50","16","","","","",""
"4720.499999995809","<p>How Hungry or Satiated are you right now?</p>","","html-slider-response","6","27658","0.0-6.0","lpqavz","Tue Feb 09 2021 01:35:53 GMT+0100 (Central European Standard Time)","2021","2","9","1","35","53","mw73","47","male","right","69","16","56","19","4","","","50","56","","","","",""
"12319.075000006706","","","survey-multi-select","7","39990","0.0-7.0","lpqavz","Tue Feb 09 2021 01:35:53 GMT+0100 (Central European Standard Time)","2021","2","9","1","35","53","mw73","47","male","right","69","16","56","19","4","{""Sleep"":[""19""],""Eat"":[""4""]}","[0,1]","","","","","","",""
"1987.4050000216812","<p>In this experiment, a face and a word will appear in the center of the screen.</p><p>If the face is <strong>happy</strong>, press the letter <strong>H</strong> with <strong>right</strong> index finger.</p><p>If the face is <strong>fearful</strong>, press the letter <strong>F</strong> with <strong>left</strong> index finger.</p><p><strong>Ignore the written words</strong>. Respond as fast as possible while being correct. </p><div style='width: 900px;'><div style='float: left;'><img src='img/stimuli_stroop_happy.png'></img><p class='small'><strong>Press the H key for happy faces</strong></p></div><div class='float: right;'><img src='img/stimuli_stroop_fear.png'></img><p class='small'><strong>Press the F key for faces with fear</strong></p></div></div><p>If the screen turns blank, press <strong>SPACE</strong></p><p><strong>Press any key to begin.</strong></p>","32","html-keyboard-response","8","41979","0.0-8.0","lpqavz","Tue Feb 09 2021 01:35:53 GMT+0100 (Central European Standard Time)","2021","2","9","1","35","53","mw73","47","male","right","69","16","56","19","4","","","","","","","","",""
"null","<div style=""font-size:60px;"">+</div>","null","html-keyboard-response","9","45987","0.0-9.0-0.0","lpqavz","Tue Feb 09 2021 01:35:53 GMT+0100 (Central European Standard Time)","2021","2","9","1","35","53","mw73","47","male","right","69","16","56","19","4","","","","","fixation","","","",""
"889.6400000085123","img/image_stim_h.png","72","image-keyboard-response","10","46879","0.0-9.0-1.0","lpqavz","Tue Feb 09 2021 01:35:53 GMT+0100 (Central European Standard Time)","2021","2","9","1","35","53","mw73","47","male","right","69","16","56","19","4","","","","","test","happy","happy","h","true"
"null","<div style=""font-size:60px;"">+</div>","null","html-keyboard-response","11","47134","0.0-9.0-0.1","lpqavz","Tue Feb 09 2021 01:35:53 GMT+0100 (Central European Standard Time)","2021","2","9","1","35","53","mw73","47","male","right","69","16","56","19","4","","","","","fixation","","","",""
"641.7099999962375","img/image_stim_f.png","70","image-keyboard-response","12","47777","0.0-9.0-1.1","lpqavz","Tue Feb 09 2021 01:35:53 GMT+0100 (Central European Standard Time)","2021","2","9","1","35","53","mw73","47","male","right","69","16","56","19","4","","","","","test","fear","fear","f","true"
"null","<div style=""font-size:60px;"">+</div>","null","html-keyboard-response","13","49031","0.0-9.0-0.2","lpqavz","Tue Feb 09 2021 01:35:53 GMT+0100 (Central European Standard Time)","2021","2","9","1","35","53","mw73","47","male","right","69","16","56","19","4","","","","","fixation","","","",""
"660.7749999966472","img/image_stim_h_stroop.png","72","image-keyboard-response","14","49693","0.0-9.0-1.2","lpqavz","Tue Feb 09 2021 01:35:53 GMT+0100 (Central European Standard Time)","2021","2","9","1","35","53","mw73","47","male","right","69","16","56","19","4","","","","","test","happy","fear","h","true"
"null","<div style=""font-size:60px;"">+</div>","null","html-keyboard-response","15","50699","0.0-9.0-0.3","lpqavz","Tue Feb 09 2021 01:35:53 GMT+0100 (Central European Standard Time)","2021","2","9","1","35","53","mw73","47","male","right","69","16","56","19","4","","","","","fixation","","","",""
"560.620000003837","img/image_stim_f_stroop.png","70","image-keyboard-response","16","51261","0.0-9.0-1.3","lpqavz","Tue Feb 09 2021 01:35:53 GMT+0100 (Central European Standard Time)","2021","2","9","1","35","53","mw73","47","male","right","69","16","56","19","4","","","","","test","fear","happy","f","true"
"null","<div style=""font-size:60px;"">+</div>","null","html-keyboard-response","17","52518","0.0-9.0-0.4","lpqavz","Tue Feb 09 2021 01:35:53 GMT+0100 (Central European Standard Time)","2021","2","9","1","35","53","mw73","47","male","right","69","16","56","19","4","","","","","fixation","","","",""
"789.6099999779835","img/image_stim_h_stroop.png","72","image-keyboard-response","18","53309","0.0-9.0-1.4","lpqavz","Tue Feb 09 2021 01:35:53 GMT+0100 (Central European Standard Time)","2021","2","9","1","35","53","mw73","47","male","right","69","16","56","19","4","","","","","test","happy","fear","h","true"
"null","<div style=""font-size:60px;"">+</div>","null","html-keyboard-response","19","55066","0.0-9.0-0.5","lpqavz","Tue Feb 09 2021 01:35:53 GMT+0100 (Central European Standard Time)","2021","2","9","1","35","53","mw73","47","male","right","69","16","56","19","4","","","","","fixation","","","",""
"712.2850000159815","img/image_stim_f.png","70","image-keyboard-response","20","55779","0.0-9.0-1.5","lpqavz","Tue Feb 09 2021 01:35:53 GMT+0100 (Central European Standard Time)","2021","2","9","1","35","53","mw73","47","male","right","69","16","56","19","4","","","","","test","fear","fear","f","true"
"null","<div style=""font-size:60px;"">+</div>","null","html-keyboard-response","21","57785","0.0-9.0-0.6","lpqavz","Tue Feb 09 2021 01:35:53 GMT+0100 (Central European Standard Time)","2021","2","9","1","35","53","mw73","47","male","right","69","16","56","19","4","","","","","fixation","","","",""
"912.9799999645911","img/image_stim_f_stroop.png","70","image-keyboard-response","22","58700","0.0-9.0-1.6","lpqavz","Tue Feb 09 2021 01:35:53 GMT+0100 (Central European Standard Time)","2021","2","9","1","35","53","mw73","47","male","right","69","16","56","19","4","","","","","test","fear","happy","f","true"
"null","<div style=""font-size:60px;"">+</div>","null","html-keyboard-response","23","59457","0.0-9.0-0.7","lpqavz","Tue Feb 09 2021 01:35:53 GMT+0100 (Central European Standard Time)","2021","2","9","1","35","53","mw73","47","male","right","69","16","56","19","4","","","","","fixation","","","",""
"666.3549999939278","img/image_stim_h.png","72","image-keyboard-response","24","60125","0.0-9.0-1.7","lpqavz","Tue Feb 09 2021 01:35:53 GMT+0100 (Central European Standard Time)","2021","2","9","1","35","53","mw73","47","male","right","69","16","56","19","4","","","","","test","happy","happy","h","true"
"null","<div style=""font-size:60px;"">+</div>","null","html-keyboard-response","25","60627","0.0-9.0-0.8","lpqavz","Tue Feb 09 2021 01:35:53 GMT+0100 (Central European Standard Time)","2021","2","9","1","35","53","mw73","47","male","right","69","16","56","19","4","","","","","fixation","","","",""
"544.4400000269525","img/image_stim_h.png","72","image-keyboard-response","26","61173","0.0-9.0-1.8","lpqavz","Tue Feb 09 2021 01:35:53 GMT+0100 (Central European Standard Time)","2021","2","9","1","35","53","mw73","47","male","right","69","16","56","19","4","","","","","test","happy","happy","h","true"
"null","<div style=""font-size:60px;"">+</div>","null","html-keyboard-response","27","62428","0.0-9.0-0.9","lpqavz","Tue Feb 09 2021 01:35:53 GMT+0100 (Central European Standard Time)","2021","2","9","1","35","53","mw73","47","male","right","69","16","56","19","4","","","","","fixation","","","",""
"723.7849999801256","img/image_stim_f.png","70","image-keyboard-response","28","63153","0.0-9.0-1.9","lpqavz","Tue Feb 09 2021 01:35:53 GMT+0100 (Central European Standard Time)","2021","2","9","1","35","53","mw73","47","male","right","69","16","56","19","4","","","","","test","fear","fear","f","true"
"null","<div style=""font-size:60px;"">+</div>","null","html-keyboard-response","29","64657","0.0-9.0-0.10","lpqavz","Tue Feb 09 2021 01:35:53 GMT+0100 (Central European Standard Time)","2021","2","9","1","35","53","mw73","47","male","right","69","16","56","19","4","","","","","fixation","","","",""
"824.5100000058301","img/image_stim_f_stroop.png","70","image-keyboard-response","30","65482","0.0-9.0-1.10","lpqavz","Tue Feb 09 2021 01:35:53 GMT+0100 (Central European Standard Time)","2021","2","9","1","35","53","mw73","47","male","right","69","16","56","19","4","","","","","test","fear","happy","f","true"
"null","<div style=""font-size:60px;"">+</div>","null","html-keyboard-response","31","66484","0.0-9.0-0.11","lpqavz","Tue Feb 09 2021 01:35:53 GMT+0100 (Central European Standard Time)","2021","2","9","1","35","53","mw73","47","male","right","69","16","56","19","4","","","","","fixation","","","",""
"682.7199999825098","img/image_stim_h_stroop.png","72","image-keyboard-response","32","67168","0.0-9.0-1.11","lpqavz","Tue Feb 09 2021 01:35:53 GMT+0100 (Central European Standard Time)","2021","2","9","1","35","53","mw73","47","male","right","69","16","56","19","4","","","","","test","happy","fear","h","true"
"null","<div style=""font-size:60px;"">+</div>","null","html-keyboard-response","33","68171","0.0-9.0-0.12","lpqavz","Tue Feb 09 2021 01:35:53 GMT+0100 (Central European Standard Time)","2021","2","9","1","35","53","mw73","47","male","right","69","16","56","19","4","","","","","fixation","","","",""
"803.7449999828823","img/image_stim_h_stroop.png","72","image-keyboard-response","34","68976","0.0-9.0-1.12","lpqavz","Tue Feb 09 2021 01:35:53 GMT+0100 (Central European Standard Time)","2021","2","9","1","35","53","mw73","47","male","right","69","16","56","19","4","","","","","test","happy","fear","h","true"
"null","<div style=""font-size:60px;"">+</div>","null","html-keyboard-response","35","70228","0.0-9.0-0.13","lpqavz","Tue Feb 09 2021 01:35:53 GMT+0100 (Central European Standard Time)","2021","2","9","1","35","53","mw73","47","male","right","69","16","56","19","4","","","","","fixation","","","",""
"730.7249999721535","img/image_stim_f_stroop.png","70","image-keyboard-response","36","70960","0.0-9.0-1.13","lpqavz","Tue Feb 09 2021 01:35:53 GMT+0100 (Central European Standard Time)","2021","2","9","1","35","53","mw73","47","male","right","69","16","56","19","4","","","","","test","fear","happy","f","true"
"null","<div style=""font-size:60px;"">+</div>","null","html-keyboard-response","37","72465","0.0-9.0-0.14","lpqavz","Tue Feb 09 2021 01:35:53 GMT+0100 (Central European Standard Time)","2021","2","9","1","35","53","mw73","47","male","right","69","16","56","19","4","","","","","fixation","","","",""
"743.4200000134297","img/image_stim_f.png","70","image-keyboard-response","38","73210","0.0-9.0-1.14","lpqavz","Tue Feb 09 2021 01:35:53 GMT+0100 (Central European Standard Time)","2021","2","9","1","35","53","mw73","47","male","right","69","16","56","19","4","","","","","test","fear","fear","f","true"
"null","<div style=""font-size:60px;"">+</div>","null","html-keyboard-response","39","74217","0.0-9.0-0.15","lpqavz","Tue Feb 09 2021 01:35:53 GMT+0100 (Central European Standard Time)","2021","2","9","1","35","53","mw73","47","male","right","69","16","56","19","4","","","","","fixation","","","",""
"633.0799999996088","img/image_stim_h.png","72","image-keyboard-response","40","74851","0.0-9.0-1.15","lpqavz","Tue Feb 09 2021 01:35:53 GMT+0100 (Central European Standard Time)","2021","2","9","1","35","53","mw73","47","male","right","69","16","56","19","4","","","","","test","happy","happy","h","true"
"null","<div style=""font-size:60px;"">+</div>","null","html-keyboard-response","41","75355","0.0-9.0-0.16","lpqavz","Tue Feb 09 2021 01:35:53 GMT+0100 (Central European Standard Time)","2021","2","9","1","35","53","mw73","47","male","right","69","16","56","19","4","","","","","fixation","","","",""
"610.5849999585189","img/image_stim_h_stroop.png","72","image-keyboard-response","42","75967","0.0-9.0-1.16","lpqavz","Tue Feb 09 2021 01:35:53 GMT+0100 (Central European Standard Time)","2021","2","9","1","35","53","mw73","47","male","right","69","16","56","19","4","","","","","test","happy","fear","h","true"
"null","<div style=""font-size:60px;"">+</div>","null","html-keyboard-response","43","77974","0.0-9.0-0.17","lpqavz","Tue Feb 09 2021 01:35:53 GMT+0100 (Central European Standard Time)","2021","2","9","1","35","53","mw73","47","male","right","69","16","56","19","4","","","","","fixation","","","",""
"667.6299999817275","img/image_stim_h.png","72","image-keyboard-response","44","78643","0.0-9.0-1.17","lpqavz","Tue Feb 09 2021 01:35:53 GMT+0100 (Central European Standard Time)","2021","2","9","1","35","53","mw73","47","male","right","69","16","56","19","4","","","","","test","happy","happy","h","true"
"null","<div style=""font-size:60px;"">+</div>","null","html-keyboard-response","45","79896","0.0-9.0-0.18","lpqavz","Tue Feb 09 2021 01:35:53 GMT+0100 (Central European Standard Time)","2021","2","9","1","35","53","mw73","47","male","right","69","16","56","19","4","","","","","fixation","","","",""
"677.4100000038743","img/image_stim_f.png","70","image-keyboard-response","46","80574","0.0-9.0-1.18","lpqavz","Tue Feb 09 2021 01:35:53 GMT+0100 (Central European Standard Time)","2021","2","9","1","35","53","mw73","47","male","right","69","16","56","19","4","","","","","test","fear","fear","f","true"
"null","<div style=""font-size:60px;"">+</div>","null","html-keyboard-response","47","81331","0.0-9.0-0.19","lpqavz","Tue Feb 09 2021 01:35:53 GMT+0100 (Central European Standard Time)","2021","2","9","1","35","53","mw73","47","male","right","69","16","56","19","4","","","","","fixation","","","",""
"993.7649999628775","img/image_stim_f_stroop.png","70","image-keyboard-response","48","82326","0.0-9.0-1.19","lpqavz","Tue Feb 09 2021 01:35:53 GMT+0100 (Central European Standard Time)","2021","2","9","1","35","53","mw73","47","male","right","69","16","56","19","4","","","","","test","fear","happy","f","true"
"null","<div style=""font-size:60px;"">+</div>","null","html-keyboard-response","49","83083","0.0-9.0-0.20","lpqavz","Tue Feb 09 2021 01:35:53 GMT+0100 (Central European Standard Time)","2021","2","9","1","35","53","mw73","47","male","right","69","16","56","19","4","","","","","fixation","","","",""
"889.5250000059605","img/image_stim_f.png","70","image-keyboard-response","50","83974","0.0-9.0-1.20","lpqavz","Tue Feb 09 2021 01:35:53 GMT+0100 (Central European Standard Time)","2021","2","9","1","35","53","mw73","47","male","right","69","16","56","19","4","","","","","test","fear","fear","f","true"
"null","<div style=""font-size:60px;"">+</div>","null","html-keyboard-response","51","85228","0.0-9.0-0.21","lpqavz","Tue Feb 09 2021 01:35:53 GMT+0100 (Central European Standard Time)","2021","2","9","1","35","53","mw73","47","male","right","69","16","56","19","4","","","","","fixation","","","",""
"705.454999988433","img/image_stim_h.png","72","image-keyboard-response","52","85935","0.0-9.0-1.21","lpqavz","Tue Feb 09 2021 01:35:53 GMT+0100 (Central European Standard Time)","2021","2","9","1","35","53","mw73","47","male","right","69","16","56","19","4","","","","","test","happy","happy","h","true"
"null","<div style=""font-size:60px;"">+</div>","null","html-keyboard-response","53","87938","0.0-9.0-0.22","lpqavz","Tue Feb 09 2021 01:35:53 GMT+0100 (Central European Standard Time)","2021","2","9","1","35","53","mw73","47","male","right","69","16","56","19","4","","","","","fixation","","","",""
"760.9499999671243","img/image_stim_h_stroop.png","72","image-keyboard-response","54","88700","0.0-9.0-1.22","lpqavz","Tue Feb 09 2021 01:35:53 GMT+0100 (Central European Standard Time)","2021","2","9","1","35","53","mw73","47","male","right","69","16","56","19","4","","","","","test","happy","fear","h","true"
"null","<div style=""font-size:60px;"">+</div>","null","html-keyboard-response","55","90706","0.0-9.0-0.23","lpqavz","Tue Feb 09 2021 01:35:53 GMT+0100 (Central European Standard Time)","2021","2","9","1","35","53","mw73","47","male","right","69","16","56","19","4","","","","","fixation","","","",""
"636.9100000010803","img/image_stim_f_stroop.png","70","image-keyboard-response","56","91345","0.0-9.0-1.23","lpqavz","Tue Feb 09 2021 01:35:53 GMT+0100 (Central European Standard Time)","2021","2","9","1","35","53","mw73","47","male","right","69","16","56","19","4","","","","","test","fear","happy","f","true"
"null","<div style=""font-size:60px;"">+</div>","null","html-keyboard-response","57","91849","0.0-9.0-0.24","lpqavz","Tue Feb 09 2021 01:35:53 GMT+0100 (Central European Standard Time)","2021","2","9","1","35","53","mw73","47","male","right","69","16","56","19","4","","","","","fixation","","","",""
"730.4000000003725","img/image_stim_f.png","70","image-keyboard-response","58","92580","0.0-9.0-1.24","lpqavz","Tue Feb 09 2021 01:35:53 GMT+0100 (Central European Standard Time)","2021","2","9","1","35","53","mw73","47","male","right","69","16","56","19","4","","","","","test","fear","fear","f","true"
"null","<div style=""font-size:60px;"">+</div>","null","html-keyboard-response","59","93585","0.0-9.0-0.25","lpqavz","Tue Feb 09 2021 01:35:53 GMT+0100 (Central European Standard Time)","2021","2","9","1","35","53","mw73","47","male","right","69","16","56","19","4","","","","","fixation","","","",""
"896.2750000064261","img/image_stim_f_stroop.png","70","image-keyboard-response","60","94483","0.0-9.0-1.25","lpqavz","Tue Feb 09 2021 01:35:53 GMT+0100 (Central European Standard Time)","2021","2","9","1","35","53","mw73","47","male","right","69","16","56","19","4","","","","","test","fear","happy","f","true"
"null","<div style=""font-size:60px;"">+</div>","null","html-keyboard-response","61","94985","0.0-9.0-0.26","lpqavz","Tue Feb 09 2021 01:35:53 GMT+0100 (Central European Standard Time)","2021","2","9","1","35","53","mw73","47","male","right","69","16","56","19","4","","","","","fixation","","","",""
"646.950000023935","img/image_stim_h.png","72","image-keyboard-response","62","95633","0.0-9.0-1.26","lpqavz","Tue Feb 09 2021 01:35:53 GMT+0100 (Central European Standard Time)","2021","2","9","1","35","53","mw73","47","male","right","69","16","56","19","4","","","","","test","happy","happy","h","true"
"null","<div style=""font-size:60px;"">+</div>","null","html-keyboard-response","63","96390","0.0-9.0-0.27","lpqavz","Tue Feb 09 2021 01:35:53 GMT+0100 (Central European Standard Time)","2021","2","9","1","35","53","mw73","47","male","right","69","16","56","19","4","","","","","fixation","","","",""
"699.9949999735691","img/image_stim_h_stroop.png","72","image-keyboard-response","64","97092","0.0-9.0-1.27","lpqavz","Tue Feb 09 2021 01:35:53 GMT+0100 (Central European Standard Time)","2021","2","9","1","35","53","mw73","47","male","right","69","16","56","19","4","","","","","test","happy","fear","h","true"
"null","<div style=""font-size:60px;"">+</div>","null","html-keyboard-response","65","97849","0.0-9.0-0.28","lpqavz","Tue Feb 09 2021 01:35:53 GMT+0100 (Central European Standard Time)","2021","2","9","1","35","53","mw73","47","male","right","69","16","56","19","4","","","","","fixation","","","",""
"641.07499999227","img/image_stim_h.png","72","image-keyboard-response","66","98491","0.0-9.0-1.28","lpqavz","Tue Feb 09 2021 01:35:53 GMT+0100 (Central European Standard Time)","2021","2","9","1","35","53","mw73","47","male","right","69","16","56","19","4","","","","","test","happy","happy","h","true"
"null","<div style=""font-size:60px;"">+</div>","null","html-keyboard-response","67","98996","0.0-9.0-0.29","lpqavz","Tue Feb 09 2021 01:35:53 GMT+0100 (Central European Standard Time)","2021","2","9","1","35","53","mw73","47","male","right","69","16","56","19","4","","","","","fixation","","","",""
"741.1350000184029","img/image_stim_f.png","70","image-keyboard-response","68","99739","0.0-9.0-1.29","lpqavz","Tue Feb 09 2021 01:35:53 GMT+0100 (Central European Standard Time)","2021","2","9","1","35","53","mw73","47","male","right","69","16","56","19","4","","","","","test","fear","fear","f","true"
"null","<div style=""font-size:60px;"">+</div>","null","html-keyboard-response","69","101755","0.0-9.0-0.30","lpqavz","Tue Feb 09 2021 01:35:53 GMT+0100 (Central European Standard Time)","2021","2","9","1","35","53","mw73","47","male","right","69","16","56","19","4","","","","","fixation","","","",""
"747.4999999976717","img/image_stim_f_stroop.png","70","image-keyboard-response","70","102504","0.0-9.0-1.30","lpqavz","Tue Feb 09 2021 01:35:53 GMT+0100 (Central European Standard Time)","2021","2","9","1","35","53","mw73","47","male","right","69","16","56","19","4","","","","","test","fear","happy","f","true"
"null","<div style=""font-size:60px;"">+</div>","null","html-keyboard-response","71","103509","0.0-9.0-0.31","lpqavz","Tue Feb 09 2021 01:35:53 GMT+0100 (Central European Standard Time)","2021","2","9","1","35","53","mw73","47","male","right","69","16","56","19","4","","","","","fixation","","","",""
"827.835000003688","img/image_stim_h_stroop.png","72","image-keyboard-response","72","104337","0.0-9.0-1.31","lpqavz","Tue Feb 09 2021 01:35:53 GMT+0100 (Central European Standard Time)","2021","2","9","1","35","53","mw73","47","male","right","69","16","56","19","4","","","","","test","happy","fear","h","true"
"null","<div style=""font-size:60px;"">+</div>","null","html-keyboard-response","73","104843","0.0-9.0-0.32","lpqavz","Tue Feb 09 2021 01:35:53 GMT+0100 (Central European Standard Time)","2021","2","9","1","35","53","mw73","47","male","right","69","16","56","19","4","","","","","fixation","","","",""
"977.7250000042841","img/image_stim_f_stroop.png","70","image-keyboard-response","74","105822","0.0-9.0-1.32","lpqavz","Tue Feb 09 2021 01:35:53 GMT+0100 (Central European Standard Time)","2021","2","9","1","35","53","mw73","47","male","right","69","16","56","19","4","","","","","test","fear","happy","f","true"
"null","<div style=""font-size:60px;"">+</div>","null","html-keyboard-response","75","107828","0.0-9.0-0.33","lpqavz","Tue Feb 09 2021 01:35:53 GMT+0100 (Central European Standard Time)","2021","2","9","1","35","53","mw73","47","male","right","69","16","56","19","4","","","","","fixation","","","",""
"713.0699999979697","img/image_stim_h_stroop.png","72","image-keyboard-response","76","108542","0.0-9.0-1.33","lpqavz","Tue Feb 09 2021 01:35:53 GMT+0100 (Central European Standard Time)","2021","2","9","1","35","53","mw73","47","male","right","69","16","56","19","4","","","","","test","happy","fear","h","true"
"null","<div style=""font-size:60px;"">+</div>","null","html-keyboard-response","77","110548","0.0-9.0-0.34","lpqavz","Tue Feb 09 2021 01:35:53 GMT+0100 (Central European Standard Time)","2021","2","9","1","35","53","mw73","47","male","right","69","16","56","19","4","","","","","fixation","","","",""
"1123.7550000078045","img/image_stim_f.png","70","image-keyboard-response","78","111673","0.0-9.0-1.34","lpqavz","Tue Feb 09 2021 01:35:53 GMT+0100 (Central European Standard Time)","2021","2","9","1","35","53","mw73","47","male","right","69","16","56","19","4","","","","","test","fear","fear","f","true"
"null","<div style=""font-size:60px;"">+</div>","null","html-keyboard-response","79","113180","0.0-9.0-0.35","lpqavz","Tue Feb 09 2021 01:35:53 GMT+0100 (Central European Standard Time)","2021","2","9","1","35","53","mw73","47","male","right","69","16","56","19","4","","","","","fixation","","","",""
"637.9000000306405","img/image_stim_h.png","72","image-keyboard-response","80","113819","0.0-9.0-1.35","lpqavz","Tue Feb 09 2021 01:35:53 GMT+0100 (Central European Standard Time)","2021","2","9","1","35","53","mw73","47","male","right","69","16","56","19","4","","","","","test","happy","happy","h","true"
