"rt","stimulus","key_press","trial_type","trial_index","time_elapsed","internal_node_id","exp_id","Time","year","month","date","hour","minute","seconds","id","age","Gender","Handedness","mood","fresh","hunger","H_since_Sleep","H_since_Eat","responses","question_order","slider_start","response","test_part","face","word","correct_response","correct"
"10312.799999952316","<p>Welcome to this experiment on daily rhythms and cognition.</p><p>First you will be asked some questions about yourself.</p><p>Then a short experiment will measure your response time.</p><p>Take the test at different times of the day/night.</p><p>The test is anonymous, but comparing your data across time is important.</p><p>Therefore, please make up and remember a personal ID (two letters+ two numbers).</p><p>Use this ID whenever taking the test.</p><p><strong>Press any key to begin.</strong></p>","32","html-keyboard-response","0","10315","0.0-0.0","362z8j","Thu Feb 10 2022 18:04:40 GMT+0100 (Central European Standard Time)","2022","2","10","18","4","40","mp12","20","male","right","60","60","80","11","2","","","","","","","","",""
"5954.799999952316","","","survey-text","1","16273","0.0-1.0","362z8j","Thu Feb 10 2022 18:04:40 GMT+0100 (Central European Standard Time)","2022","2","10","18","4","40","mp12","20","male","right","60","60","80","11","2","{""Q0"":""mp12""}","","","","","","","",""
"2212","","","survey-text","2","18487","0.0-2.0","362z8j","Thu Feb 10 2022 18:04:40 GMT+0100 (Central European Standard Time)","2022","2","10","18","4","40","mp12","20","male","right","60","60","80","11","2","{""Q0"":""20""}","","","","","","","",""
"5668.699999928474","","","survey-multi-select","3","24158","0.0-3.0","362z8j","Thu Feb 10 2022 18:04:40 GMT+0100 (Central European Standard Time)","2022","2","10","18","4","40","mp12","20","male","right","60","60","80","11","2","{""Gender"":[""male""],""Hand"":[""right""]}","[0,1]","","","","","","",""
"8112.800000071526","<p>How Sad/Angry or Happy are you right now?</p>","","html-slider-response","4","32273","0.0-4.0","362z8j","Thu Feb 10 2022 18:04:40 GMT+0100 (Central European Standard Time)","2022","2","10","18","4","40","mp12","20","male","right","60","60","80","11","2","","","50","60","","","","",""
"6585.700000047684","<p>How Tired/Sleepy/Distracted or Fresh/Awake/Alert are you right now?</p>","","html-slider-response","5","38860","0.0-5.0","362z8j","Thu Feb 10 2022 18:04:40 GMT+0100 (Central European Standard Time)","2022","2","10","18","4","40","mp12","20","male","right","60","60","80","11","2","","","50","60","","","","",""
"4168","<p>How Hungry or Satiated are you right now?</p>","","html-slider-response","6","43029","0.0-6.0","362z8j","Thu Feb 10 2022 18:04:40 GMT+0100 (Central European Standard Time)","2022","2","10","18","4","40","mp12","20","male","right","60","60","80","11","2","","","50","80","","","","",""
"24580.299999952316","","","survey-multi-select","7","67652","0.0-7.0","362z8j","Thu Feb 10 2022 18:04:40 GMT+0100 (Central European Standard Time)","2022","2","10","18","4","40","mp12","20","male","right","60","60","80","11","2","{""Sleep"":[""11""],""Eat"":[""2""]}","[0,1]","","","","","","",""
"54739.199999928474","<p>In this experiment, a face and a word will appear in the center of the screen.</p><p>If the face is <strong>happy</strong>, press the letter <strong>H</strong> with <strong>right</strong> index finger.</p><p>If the face is <strong>fearful</strong>, press the letter <strong>F</strong> with <strong>left</strong> index finger.</p><p><strong>Ignore the written words</strong>. Respond as fast as possible while being correct. </p><div style='width: 900px;'><div style='float: left;'><img src='img/stimuli_stroop_happy.png'></img><p class='small'><strong>Press the H key for happy faces</strong></p></div><div class='float: right;'><img src='img/stimuli_stroop_fear.png'></img><p class='small'><strong>Press the F key for faces with fear</strong></p></div></div><p>If the screen turns blank, press <strong>SPACE</strong></p><p><strong>Press any key to begin.</strong></p>","32","html-keyboard-response","8","122393","0.0-8.0","362z8j","Thu Feb 10 2022 18:04:40 GMT+0100 (Central European Standard Time)","2022","2","10","18","4","40","mp12","20","male","right","60","60","80","11","2","","","","","","","","",""
"null","<div style=""font-size:60px;"">+</div>","null","html-keyboard-response","9","124897","0.0-9.0-0.0","362z8j","Thu Feb 10 2022 18:04:40 GMT+0100 (Central European Standard Time)","2022","2","10","18","4","40","mp12","20","male","right","60","60","80","11","2","","","","","fixation","","","",""
"1520.6000000238419","img/image_stim_h_stroop.png","72","image-keyboard-response","10","126424","0.0-9.0-1.0","362z8j","Thu Feb 10 2022 18:04:40 GMT+0100 (Central European Standard Time)","2022","2","10","18","4","40","mp12","20","male","right","60","60","80","11","2","","","","","test","happy","fear","h","true"
"null","<div style=""font-size:60px;"">+</div>","null","html-keyboard-response","11","126677","0.0-9.0-0.1","362z8j","Thu Feb 10 2022 18:04:40 GMT+0100 (Central European Standard Time)","2022","2","10","18","4","40","mp12","20","male","right","60","60","80","11","2","","","","","fixation","","","",""
"775.3999999761581","img/image_stim_h.png","72","image-keyboard-response","12","127453","0.0-9.0-1.1","362z8j","Thu Feb 10 2022 18:04:40 GMT+0100 (Central European Standard Time)","2022","2","10","18","4","40","mp12","20","male","right","60","60","80","11","2","","","","","test","happy","happy","h","true"
"null","<div style=""font-size:60px;"">+</div>","null","html-keyboard-response","13","128956","0.0-9.0-0.2","362z8j","Thu Feb 10 2022 18:04:40 GMT+0100 (Central European Standard Time)","2022","2","10","18","4","40","mp12","20","male","right","60","60","80","11","2","","","","","fixation","","","",""
"669.0999999046326","img/image_stim_f.png","70","image-keyboard-response","14","129626","0.0-9.0-1.2","362z8j","Thu Feb 10 2022 18:04:40 GMT+0100 (Central European Standard Time)","2022","2","10","18","4","40","mp12","20","male","right","60","60","80","11","2","","","","","test","fear","fear","f","true"
"null","<div style=""font-size:60px;"">+</div>","null","html-keyboard-response","15","130878","0.0-9.0-0.3","362z8j","Thu Feb 10 2022 18:04:40 GMT+0100 (Central European Standard Time)","2022","2","10","18","4","40","mp12","20","male","right","60","60","80","11","2","","","","","fixation","","","",""
"430","img/image_stim_f_stroop.png","70","image-keyboard-response","16","131309","0.0-9.0-1.3","362z8j","Thu Feb 10 2022 18:04:40 GMT+0100 (Central European Standard Time)","2022","2","10","18","4","40","mp12","20","male","right","60","60","80","11","2","","","","","test","fear","happy","f","true"
"null","<div style=""font-size:60px;"">+</div>","null","html-keyboard-response","17","132312","0.0-9.0-0.4","362z8j","Thu Feb 10 2022 18:04:40 GMT+0100 (Central European Standard Time)","2022","2","10","18","4","40","mp12","20","male","right","60","60","80","11","2","","","","","fixation","","","",""
"604.1000000238419","img/image_stim_h_stroop.png","72","image-keyboard-response","18","132917","0.0-9.0-1.4","362z8j","Thu Feb 10 2022 18:04:40 GMT+0100 (Central European Standard Time)","2022","2","10","18","4","40","mp12","20","male","right","60","60","80","11","2","","","","","test","happy","fear","h","true"
"null","<div style=""font-size:60px;"">+</div>","null","html-keyboard-response","19","133919","0.0-9.0-0.5","362z8j","Thu Feb 10 2022 18:04:40 GMT+0100 (Central European Standard Time)","2022","2","10","18","4","40","mp12","20","male","right","60","60","80","11","2","","","","","fixation","","","",""
"446","img/image_stim_f.png","70","image-keyboard-response","20","134366","0.0-9.0-1.5","362z8j","Thu Feb 10 2022 18:04:40 GMT+0100 (Central European Standard Time)","2022","2","10","18","4","40","mp12","20","male","right","60","60","80","11","2","","","","","test","fear","fear","f","true"
"null","<div style=""font-size:60px;"">+</div>","null","html-keyboard-response","21","135618","0.0-9.0-0.6","362z8j","Thu Feb 10 2022 18:04:40 GMT+0100 (Central European Standard Time)","2022","2","10","18","4","40","mp12","20","male","right","60","60","80","11","2","","","","","fixation","","","",""
"446.60000002384186","img/image_stim_h.png","72","image-keyboard-response","22","136066","0.0-9.0-1.6","362z8j","Thu Feb 10 2022 18:04:40 GMT+0100 (Central European Standard Time)","2022","2","10","18","4","40","mp12","20","male","right","60","60","80","11","2","","","","","test","happy","happy","h","true"
"null","<div style=""font-size:60px;"">+</div>","null","html-keyboard-response","23","138069","0.0-9.0-0.7","362z8j","Thu Feb 10 2022 18:04:40 GMT+0100 (Central European Standard Time)","2022","2","10","18","4","40","mp12","20","male","right","60","60","80","11","2","","","","","fixation","","","",""
"392.89999997615814","img/image_stim_f_stroop.png","70","image-keyboard-response","24","138463","0.0-9.0-1.7","362z8j","Thu Feb 10 2022 18:04:40 GMT+0100 (Central European Standard Time)","2022","2","10","18","4","40","mp12","20","male","right","60","60","80","11","2","","","","","test","fear","happy","f","true"
"null","<div style=""font-size:60px;"">+</div>","null","html-keyboard-response","25","139716","0.0-9.0-0.8","362z8j","Thu Feb 10 2022 18:04:40 GMT+0100 (Central European Standard Time)","2022","2","10","18","4","40","mp12","20","male","right","60","60","80","11","2","","","","","fixation","","","",""
"542.7000000476837","img/image_stim_f.png","70","image-keyboard-response","26","140260","0.0-9.0-1.8","362z8j","Thu Feb 10 2022 18:04:40 GMT+0100 (Central European Standard Time)","2022","2","10","18","4","40","mp12","20","male","right","60","60","80","11","2","","","","","test","fear","fear","f","true"
"null","<div style=""font-size:60px;"">+</div>","null","html-keyboard-response","27","141513","0.0-9.0-0.9","362z8j","Thu Feb 10 2022 18:04:40 GMT+0100 (Central European Standard Time)","2022","2","10","18","4","40","mp12","20","male","right","60","60","80","11","2","","","","","fixation","","","",""
"330.59999990463257","img/image_stim_f_stroop.png","70","image-keyboard-response","28","141844","0.0-9.0-1.9","362z8j","Thu Feb 10 2022 18:04:40 GMT+0100 (Central European Standard Time)","2022","2","10","18","4","40","mp12","20","male","right","60","60","80","11","2","","","","","test","fear","happy","f","true"
"null","<div style=""font-size:60px;"">+</div>","null","html-keyboard-response","29","142848","0.0-9.0-0.10","362z8j","Thu Feb 10 2022 18:04:40 GMT+0100 (Central European Standard Time)","2022","2","10","18","4","40","mp12","20","male","right","60","60","80","11","2","","","","","fixation","","","",""
"327.39999997615814","img/image_stim_h_stroop.png","70","image-keyboard-response","30","143176","0.0-9.0-1.10","362z8j","Thu Feb 10 2022 18:04:40 GMT+0100 (Central European Standard Time)","2022","2","10","18","4","40","mp12","20","male","right","60","60","80","11","2","","","","","test","happy","fear","h","false"
"null","<div style=""font-size:60px;"">+</div>","null","html-keyboard-response","31","143430","0.0-9.0-0.11","362z8j","Thu Feb 10 2022 18:04:40 GMT+0100 (Central European Standard Time)","2022","2","10","18","4","40","mp12","20","male","right","60","60","80","11","2","","","","","fixation","","","",""
"583","img/image_stim_h.png","72","image-keyboard-response","32","144014","0.0-9.0-1.11","362z8j","Thu Feb 10 2022 18:04:40 GMT+0100 (Central European Standard Time)","2022","2","10","18","4","40","mp12","20","male","right","60","60","80","11","2","","","","","test","happy","happy","h","true"
"null","<div style=""font-size:60px;"">+</div>","null","html-keyboard-response","33","145267","0.0-9.0-0.12","362z8j","Thu Feb 10 2022 18:04:40 GMT+0100 (Central European Standard Time)","2022","2","10","18","4","40","mp12","20","male","right","60","60","80","11","2","","","","","fixation","","","",""
"531.8000000715256","img/image_stim_f.png","70","image-keyboard-response","34","145800","0.0-9.0-1.12","362z8j","Thu Feb 10 2022 18:04:40 GMT+0100 (Central European Standard Time)","2022","2","10","18","4","40","mp12","20","male","right","60","60","80","11","2","","","","","test","fear","fear","f","true"
"null","<div style=""font-size:60px;"">+</div>","null","html-keyboard-response","35","146553","0.0-9.0-0.13","362z8j","Thu Feb 10 2022 18:04:40 GMT+0100 (Central European Standard Time)","2022","2","10","18","4","40","mp12","20","male","right","60","60","80","11","2","","","","","fixation","","","",""
"575.1000000238419","img/image_stim_h_stroop.png","72","image-keyboard-response","36","147130","0.0-9.0-1.13","362z8j","Thu Feb 10 2022 18:04:40 GMT+0100 (Central European Standard Time)","2022","2","10","18","4","40","mp12","20","male","right","60","60","80","11","2","","","","","test","happy","fear","h","true"
"null","<div style=""font-size:60px;"">+</div>","null","html-keyboard-response","37","148383","0.0-9.0-0.14","362z8j","Thu Feb 10 2022 18:04:40 GMT+0100 (Central European Standard Time)","2022","2","10","18","4","40","mp12","20","male","right","60","60","80","11","2","","","","","fixation","","","",""
"523.2999999523163","img/image_stim_f_stroop.png","70","image-keyboard-response","38","148907","0.0-9.0-1.14","362z8j","Thu Feb 10 2022 18:04:40 GMT+0100 (Central European Standard Time)","2022","2","10","18","4","40","mp12","20","male","right","60","60","80","11","2","","","","","test","fear","happy","f","true"
"null","<div style=""font-size:60px;"">+</div>","null","html-keyboard-response","39","150160","0.0-9.0-0.15","362z8j","Thu Feb 10 2022 18:04:40 GMT+0100 (Central European Standard Time)","2022","2","10","18","4","40","mp12","20","male","right","60","60","80","11","2","","","","","fixation","","","",""
"473.60000002384186","img/image_stim_h.png","72","image-keyboard-response","40","150635","0.0-9.0-1.15","362z8j","Thu Feb 10 2022 18:04:40 GMT+0100 (Central European Standard Time)","2022","2","10","18","4","40","mp12","20","male","right","60","60","80","11","2","","","","","test","happy","happy","h","true"
"null","<div style=""font-size:60px;"">+</div>","null","html-keyboard-response","41","151137","0.0-9.0-0.16","362z8j","Thu Feb 10 2022 18:04:40 GMT+0100 (Central European Standard Time)","2022","2","10","18","4","40","mp12","20","male","right","60","60","80","11","2","","","","","fixation","","","",""
"507.5","img/image_stim_f.png","70","image-keyboard-response","42","151646","0.0-9.0-1.16","362z8j","Thu Feb 10 2022 18:04:40 GMT+0100 (Central European Standard Time)","2022","2","10","18","4","40","mp12","20","male","right","60","60","80","11","2","","","","","test","fear","fear","f","true"
"null","<div style=""font-size:60px;"">+</div>","null","html-keyboard-response","43","153649","0.0-9.0-0.17","362z8j","Thu Feb 10 2022 18:04:40 GMT+0100 (Central European Standard Time)","2022","2","10","18","4","40","mp12","20","male","right","60","60","80","11","2","","","","","fixation","","","",""
"497.59999990463257","img/image_stim_h_stroop.png","70","image-keyboard-response","44","154148","0.0-9.0-1.17","362z8j","Thu Feb 10 2022 18:04:40 GMT+0100 (Central European Standard Time)","2022","2","10","18","4","40","mp12","20","male","right","60","60","80","11","2","","","","","test","happy","fear","h","false"
"null","<div style=""font-size:60px;"">+</div>","null","html-keyboard-response","45","154901","0.0-9.0-0.18","362z8j","Thu Feb 10 2022 18:04:40 GMT+0100 (Central European Standard Time)","2022","2","10","18","4","40","mp12","20","male","right","60","60","80","11","2","","","","","fixation","","","",""
"597.5","img/image_stim_h.png","72","image-keyboard-response","46","155500","0.0-9.0-1.18","362z8j","Thu Feb 10 2022 18:04:40 GMT+0100 (Central European Standard Time)","2022","2","10","18","4","40","mp12","20","male","right","60","60","80","11","2","","","","","test","happy","happy","h","true"
"null","<div style=""font-size:60px;"">+</div>","null","html-keyboard-response","47","156253","0.0-9.0-0.19","362z8j","Thu Feb 10 2022 18:04:40 GMT+0100 (Central European Standard Time)","2022","2","10","18","4","40","mp12","20","male","right","60","60","80","11","2","","","","","fixation","","","",""
"448","img/image_stim_f_stroop.png","70","image-keyboard-response","48","156702","0.0-9.0-1.19","362z8j","Thu Feb 10 2022 18:04:40 GMT+0100 (Central European Standard Time)","2022","2","10","18","4","40","mp12","20","male","right","60","60","80","11","2","","","","","test","fear","happy","f","true"
"null","<div style=""font-size:60px;"">+</div>","null","html-keyboard-response","49","157705","0.0-9.0-0.20","362z8j","Thu Feb 10 2022 18:04:40 GMT+0100 (Central European Standard Time)","2022","2","10","18","4","40","mp12","20","male","right","60","60","80","11","2","","","","","fixation","","","",""
"475.39999997615814","img/image_stim_f.png","70","image-keyboard-response","50","158182","0.0-9.0-1.20","362z8j","Thu Feb 10 2022 18:04:40 GMT+0100 (Central European Standard Time)","2022","2","10","18","4","40","mp12","20","male","right","60","60","80","11","2","","","","","test","fear","fear","f","true"
"null","<div style=""font-size:60px;"">+</div>","null","html-keyboard-response","51","159686","0.0-9.0-0.21","362z8j","Thu Feb 10 2022 18:04:40 GMT+0100 (Central European Standard Time)","2022","2","10","18","4","40","mp12","20","male","right","60","60","80","11","2","","","","","fixation","","","",""
"486.8000000715256","img/image_stim_f_stroop.png","70","image-keyboard-response","52","160174","0.0-9.0-1.21","362z8j","Thu Feb 10 2022 18:04:40 GMT+0100 (Central European Standard Time)","2022","2","10","18","4","40","mp12","20","male","right","60","60","80","11","2","","","","","test","fear","happy","f","true"
"null","<div style=""font-size:60px;"">+</div>","null","html-keyboard-response","53","160926","0.0-9.0-0.22","362z8j","Thu Feb 10 2022 18:04:40 GMT+0100 (Central European Standard Time)","2022","2","10","18","4","40","mp12","20","male","right","60","60","80","11","2","","","","","fixation","","","",""
"548.5","img/image_stim_h_stroop.png","72","image-keyboard-response","54","161476","0.0-9.0-1.22","362z8j","Thu Feb 10 2022 18:04:40 GMT+0100 (Central European Standard Time)","2022","2","10","18","4","40","mp12","20","male","right","60","60","80","11","2","","","","","test","happy","fear","h","true"
"null","<div style=""font-size:60px;"">+</div>","null","html-keyboard-response","55","162980","0.0-9.0-0.23","362z8j","Thu Feb 10 2022 18:04:40 GMT+0100 (Central European Standard Time)","2022","2","10","18","4","40","mp12","20","male","right","60","60","80","11","2","","","","","fixation","","","",""
"459","img/image_stim_h.png","70","image-keyboard-response","56","163440","0.0-9.0-1.23","362z8j","Thu Feb 10 2022 18:04:40 GMT+0100 (Central European Standard Time)","2022","2","10","18","4","40","mp12","20","male","right","60","60","80","11","2","","","","","test","happy","happy","h","false"
"null","<div style=""font-size:60px;"">+</div>","null","html-keyboard-response","57","164693","0.0-9.0-0.24","362z8j","Thu Feb 10 2022 18:04:40 GMT+0100 (Central European Standard Time)","2022","2","10","18","4","40","mp12","20","male","right","60","60","80","11","2","","","","","fixation","","","",""
"481","img/image_stim_h.png","72","image-keyboard-response","58","165175","0.0-9.0-1.24","362z8j","Thu Feb 10 2022 18:04:40 GMT+0100 (Central European Standard Time)","2022","2","10","18","4","40","mp12","20","male","right","60","60","80","11","2","","","","","test","happy","happy","h","true"
"null","<div style=""font-size:60px;"">+</div>","null","html-keyboard-response","59","166428","0.0-9.0-0.25","362z8j","Thu Feb 10 2022 18:04:40 GMT+0100 (Central European Standard Time)","2022","2","10","18","4","40","mp12","20","male","right","60","60","80","11","2","","","","","fixation","","","",""
"361.39999997615814","img/image_stim_h_stroop.png","72","image-keyboard-response","60","166791","0.0-9.0-1.25","362z8j","Thu Feb 10 2022 18:04:40 GMT+0100 (Central European Standard Time)","2022","2","10","18","4","40","mp12","20","male","right","60","60","80","11","2","","","","","test","happy","fear","h","true"
"null","<div style=""font-size:60px;"">+</div>","null","html-keyboard-response","61","168795","0.0-9.0-0.26","362z8j","Thu Feb 10 2022 18:04:40 GMT+0100 (Central European Standard Time)","2022","2","10","18","4","40","mp12","20","male","right","60","60","80","11","2","","","","","fixation","","","",""
"581.1999999284744","img/image_stim_f.png","70","image-keyboard-response","62","169378","0.0-9.0-1.26","362z8j","Thu Feb 10 2022 18:04:40 GMT+0100 (Central European Standard Time)","2022","2","10","18","4","40","mp12","20","male","right","60","60","80","11","2","","","","","test","fear","fear","f","true"
"null","<div style=""font-size:60px;"">+</div>","null","html-keyboard-response","63","171382","0.0-9.0-0.27","362z8j","Thu Feb 10 2022 18:04:40 GMT+0100 (Central European Standard Time)","2022","2","10","18","4","40","mp12","20","male","right","60","60","80","11","2","","","","","fixation","","","",""
"685.7999999523163","img/image_stim_f_stroop.png","70","image-keyboard-response","64","172069","0.0-9.0-1.27","362z8j","Thu Feb 10 2022 18:04:40 GMT+0100 (Central European Standard Time)","2022","2","10","18","4","40","mp12","20","male","right","60","60","80","11","2","","","","","test","fear","happy","f","true"
"null","<div style=""font-size:60px;"">+</div>","null","html-keyboard-response","65","174073","0.0-9.0-0.28","362z8j","Thu Feb 10 2022 18:04:40 GMT+0100 (Central European Standard Time)","2022","2","10","18","4","40","mp12","20","male","right","60","60","80","11","2","","","","","fixation","","","",""
"479.39999997615814","img/image_stim_f.png","70","image-keyboard-response","66","174554","0.0-9.0-1.28","362z8j","Thu Feb 10 2022 18:04:40 GMT+0100 (Central European Standard Time)","2022","2","10","18","4","40","mp12","20","male","right","60","60","80","11","2","","","","","test","fear","fear","f","true"
"null","<div style=""font-size:60px;"">+</div>","null","html-keyboard-response","67","176557","0.0-9.0-0.29","362z8j","Thu Feb 10 2022 18:04:40 GMT+0100 (Central European Standard Time)","2022","2","10","18","4","40","mp12","20","male","right","60","60","80","11","2","","","","","fixation","","","",""
"416.39999997615814","img/image_stim_f_stroop.png","70","image-keyboard-response","68","176975","0.0-9.0-1.29","362z8j","Thu Feb 10 2022 18:04:40 GMT+0100 (Central European Standard Time)","2022","2","10","18","4","40","mp12","20","male","right","60","60","80","11","2","","","","","test","fear","happy","f","true"
"null","<div style=""font-size:60px;"">+</div>","null","html-keyboard-response","69","177229","0.0-9.0-0.30","362z8j","Thu Feb 10 2022 18:04:40 GMT+0100 (Central European Standard Time)","2022","2","10","18","4","40","mp12","20","male","right","60","60","80","11","2","","","","","fixation","","","",""
"639.3999999761581","img/image_stim_h_stroop.png","72","image-keyboard-response","70","177870","0.0-9.0-1.30","362z8j","Thu Feb 10 2022 18:04:40 GMT+0100 (Central European Standard Time)","2022","2","10","18","4","40","mp12","20","male","right","60","60","80","11","2","","","","","test","happy","fear","h","true"
"null","<div style=""font-size:60px;"">+</div>","null","html-keyboard-response","71","179123","0.0-9.0-0.31","362z8j","Thu Feb 10 2022 18:04:40 GMT+0100 (Central European Standard Time)","2022","2","10","18","4","40","mp12","20","male","right","60","60","80","11","2","","","","","fixation","","","",""
"424.89999997615814","img/image_stim_h.png","72","image-keyboard-response","72","179550","0.0-9.0-1.31","362z8j","Thu Feb 10 2022 18:04:40 GMT+0100 (Central European Standard Time)","2022","2","10","18","4","40","mp12","20","male","right","60","60","80","11","2","","","","","test","happy","happy","h","true"
"null","<div style=""font-size:60px;"">+</div>","null","html-keyboard-response","73","180304","0.0-9.0-0.32","362z8j","Thu Feb 10 2022 18:04:40 GMT+0100 (Central European Standard Time)","2022","2","10","18","4","40","mp12","20","male","right","60","60","80","11","2","","","","","fixation","","","",""
"497.2000000476837","img/image_stim_f.png","70","image-keyboard-response","74","180803","0.0-9.0-1.32","362z8j","Thu Feb 10 2022 18:04:40 GMT+0100 (Central European Standard Time)","2022","2","10","18","4","40","mp12","20","male","right","60","60","80","11","2","","","","","test","fear","fear","f","true"
"null","<div style=""font-size:60px;"">+</div>","null","html-keyboard-response","75","182307","0.0-9.0-0.33","362z8j","Thu Feb 10 2022 18:04:40 GMT+0100 (Central European Standard Time)","2022","2","10","18","4","40","mp12","20","male","right","60","60","80","11","2","","","","","fixation","","","",""
"503","img/image_stim_h.png","72","image-keyboard-response","76","182811","0.0-9.0-1.33","362z8j","Thu Feb 10 2022 18:04:40 GMT+0100 (Central European Standard Time)","2022","2","10","18","4","40","mp12","20","male","right","60","60","80","11","2","","","","","test","happy","happy","h","true"
"null","<div style=""font-size:60px;"">+</div>","null","html-keyboard-response","77","183065","0.0-9.0-0.34","362z8j","Thu Feb 10 2022 18:04:40 GMT+0100 (Central European Standard Time)","2022","2","10","18","4","40","mp12","20","male","right","60","60","80","11","2","","","","","fixation","","","",""
"686.3000000715256","img/image_stim_f_stroop.png","70","image-keyboard-response","78","183753","0.0-9.0-1.34","362z8j","Thu Feb 10 2022 18:04:40 GMT+0100 (Central European Standard Time)","2022","2","10","18","4","40","mp12","20","male","right","60","60","80","11","2","","","","","test","fear","happy","f","true"
"null","<div style=""font-size:60px;"">+</div>","null","html-keyboard-response","79","184256","0.0-9.0-0.35","362z8j","Thu Feb 10 2022 18:04:40 GMT+0100 (Central European Standard Time)","2022","2","10","18","4","40","mp12","20","male","right","60","60","80","11","2","","","","","fixation","","","",""
"547.6000000238419","img/image_stim_h_stroop.png","72","image-keyboard-response","80","184805","0.0-9.0-1.35","362z8j","Thu Feb 10 2022 18:04:40 GMT+0100 (Central European Standard Time)","2022","2","10","18","4","40","mp12","20","male","right","60","60","80","11","2","","","","","test","happy","fear","h","true"
