"rt","stimulus","key_press","trial_type","trial_index","time_elapsed","internal_node_id","exp_id","Time","year","month","date","hour","minute","seconds","id","age","Gender","Handedness","mood","fresh","hunger","H_since_Sleep","H_since_Eat","responses","question_order","slider_start","response","test_part","face","word","correct_response","correct"
"16966","<p>Welcome to this experiment on daily rhythms and cognition.</p><p>First you will be asked some questions about yourself.</p><p>Then a short experiment will measure your response time.</p><p>Take the test at different times of the day/night.</p><p>The test is anonymous, but comparing your data across time is important.</p><p>Therefore, please make up and remember a personal ID (two letters+ two numbers).</p><p>Use this ID whenever taking the test.</p><p><strong>Press any key to begin.</strong></p>","32","html-keyboard-response","0","16968","0.0-0.0","m09773","Thu Feb 10 2022 08:02:07 GMT+0100 (Central European Standard Time)","2022","2","10","8","2","7","sz16","19","female","right","57","54","28","0","10","","","","","","","","",""
"3047.3000000715256","","","survey-text","1","20021","0.0-1.0","m09773","Thu Feb 10 2022 08:02:07 GMT+0100 (Central European Standard Time)","2022","2","10","8","2","7","sz16","19","female","right","57","54","28","0","10","{""Q0"":""sz16""}","","","","","","","",""
"1972.8999999761581","","","survey-text","2","21997","0.0-2.0","m09773","Thu Feb 10 2022 08:02:07 GMT+0100 (Central European Standard Time)","2022","2","10","8","2","7","sz16","19","female","right","57","54","28","0","10","{""Q0"":""19""}","","","","","","","",""
"4654.700000047684","","","survey-multi-select","3","26656","0.0-3.0","m09773","Thu Feb 10 2022 08:02:07 GMT+0100 (Central European Standard Time)","2022","2","10","8","2","7","sz16","19","female","right","57","54","28","0","10","{""Gender"":[""female""],""Hand"":[""right""]}","[0,1]","","","","","","",""
"6428.199999928474","<p>How Sad/Angry or Happy are you right now?</p>","","html-slider-response","4","33089","0.0-4.0","m09773","Thu Feb 10 2022 08:02:07 GMT+0100 (Central European Standard Time)","2022","2","10","8","2","7","sz16","19","female","right","57","54","28","0","10","","","50","57","","","","",""
"4836.700000047684","<p>How Tired/Sleepy/Distracted or Fresh/Awake/Alert are you right now?</p>","","html-slider-response","5","37928","0.0-5.0","m09773","Thu Feb 10 2022 08:02:07 GMT+0100 (Central European Standard Time)","2022","2","10","8","2","7","sz16","19","female","right","57","54","28","0","10","","","50","54","","","","",""
"11731.399999976158","<p>How Hungry or Satiated are you right now?</p>","","html-slider-response","6","49661","0.0-6.0","m09773","Thu Feb 10 2022 08:02:07 GMT+0100 (Central European Standard Time)","2022","2","10","8","2","7","sz16","19","female","right","57","54","28","0","10","","","50","28","","","","",""
"22551.599999904633","","","survey-multi-select","7","72228","0.0-7.0","m09773","Thu Feb 10 2022 08:02:07 GMT+0100 (Central European Standard Time)","2022","2","10","8","2","7","sz16","19","female","right","57","54","28","0","10","{""Sleep"":[""0""],""Eat"":[""10""]}","[0,1]","","","","","","",""
"8850.899999976158","<p>In this experiment, a face and a word will appear in the center of the screen.</p><p>If the face is <strong>happy</strong>, press the letter <strong>H</strong> with <strong>right</strong> index finger.</p><p>If the face is <strong>fearful</strong>, press the letter <strong>F</strong> with <strong>left</strong> index finger.</p><p><strong>Ignore the written words</strong>. Respond as fast as possible while being correct. </p><div style='width: 900px;'><div style='float: left;'><img src='img/stimuli_stroop_happy.png'></img><p class='small'><strong>Press the H key for happy faces</strong></p></div><div class='float: right;'><img src='img/stimuli_stroop_fear.png'></img><p class='small'><strong>Press the F key for faces with fear</strong></p></div></div><p>If the screen turns blank, press <strong>SPACE</strong></p><p><strong>Press any key to begin.</strong></p>","32","html-keyboard-response","8","81086","0.0-8.0","m09773","Thu Feb 10 2022 08:02:07 GMT+0100 (Central European Standard Time)","2022","2","10","8","2","7","sz16","19","female","right","57","54","28","0","10","","","","","","","","",""
"null","<div style=""font-size:60px;"">+</div>","null","html-keyboard-response","9","83600","0.0-9.0-0.0","m09773","Thu Feb 10 2022 08:02:07 GMT+0100 (Central European Standard Time)","2022","2","10","8","2","7","sz16","19","female","right","57","54","28","0","10","","","","","fixation","","","",""
"649.3999999761581","img/image_stim_h_stroop.png","72","image-keyboard-response","10","84260","0.0-9.0-1.0","m09773","Thu Feb 10 2022 08:02:07 GMT+0100 (Central European Standard Time)","2022","2","10","8","2","7","sz16","19","female","right","57","54","28","0","10","","","","","test","happy","fear","h","true"
"null","<div style=""font-size:60px;"">+</div>","null","html-keyboard-response","11","85267","0.0-9.0-0.1","m09773","Thu Feb 10 2022 08:02:07 GMT+0100 (Central European Standard Time)","2022","2","10","8","2","7","sz16","19","female","right","57","54","28","0","10","","","","","fixation","","","",""
"401.1999999284744","img/image_stim_f.png","70","image-keyboard-response","12","85669","0.0-9.0-1.1","m09773","Thu Feb 10 2022 08:02:07 GMT+0100 (Central European Standard Time)","2022","2","10","8","2","7","sz16","19","female","right","57","54","28","0","10","","","","","test","fear","fear","f","true"
"null","<div style=""font-size:60px;"">+</div>","null","html-keyboard-response","13","87185","0.0-9.0-0.2","m09773","Thu Feb 10 2022 08:02:07 GMT+0100 (Central European Standard Time)","2022","2","10","8","2","7","sz16","19","female","right","57","54","28","0","10","","","","","fixation","","","",""
"404.5","img/image_stim_h.png","72","image-keyboard-response","14","87591","0.0-9.0-1.2","m09773","Thu Feb 10 2022 08:02:07 GMT+0100 (Central European Standard Time)","2022","2","10","8","2","7","sz16","19","female","right","57","54","28","0","10","","","","","test","happy","happy","h","true"
"null","<div style=""font-size:60px;"">+</div>","null","html-keyboard-response","15","88351","0.0-9.0-0.3","m09773","Thu Feb 10 2022 08:02:07 GMT+0100 (Central European Standard Time)","2022","2","10","8","2","7","sz16","19","female","right","57","54","28","0","10","","","","","fixation","","","",""
"422.5","img/image_stim_f_stroop.png","70","image-keyboard-response","16","88775","0.0-9.0-1.3","m09773","Thu Feb 10 2022 08:02:07 GMT+0100 (Central European Standard Time)","2022","2","10","8","2","7","sz16","19","female","right","57","54","28","0","10","","","","","test","fear","happy","f","true"
"null","<div style=""font-size:60px;"">+</div>","null","html-keyboard-response","17","90534","0.0-9.0-0.4","m09773","Thu Feb 10 2022 08:02:07 GMT+0100 (Central European Standard Time)","2022","2","10","8","2","7","sz16","19","female","right","57","54","28","0","10","","","","","fixation","","","",""
"469.89999997615814","img/image_stim_h.png","72","image-keyboard-response","18","91005","0.0-9.0-1.4","m09773","Thu Feb 10 2022 08:02:07 GMT+0100 (Central European Standard Time)","2022","2","10","8","2","7","sz16","19","female","right","57","54","28","0","10","","","","","test","happy","happy","h","true"
"null","<div style=""font-size:60px;"">+</div>","null","html-keyboard-response","19","91509","0.0-9.0-0.5","m09773","Thu Feb 10 2022 08:02:07 GMT+0100 (Central European Standard Time)","2022","2","10","8","2","7","sz16","19","female","right","57","54","28","0","10","","","","","fixation","","","",""
"652","img/image_stim_h_stroop.png","72","image-keyboard-response","20","92163","0.0-9.0-1.5","m09773","Thu Feb 10 2022 08:02:07 GMT+0100 (Central European Standard Time)","2022","2","10","8","2","7","sz16","19","female","right","57","54","28","0","10","","","","","test","happy","fear","h","true"
"null","<div style=""font-size:60px;"">+</div>","null","html-keyboard-response","21","92668","0.0-9.0-0.6","m09773","Thu Feb 10 2022 08:02:07 GMT+0100 (Central European Standard Time)","2022","2","10","8","2","7","sz16","19","female","right","57","54","28","0","10","","","","","fixation","","","",""
"523.8000000715256","img/image_stim_f_stroop.png","70","image-keyboard-response","22","93193","0.0-9.0-1.6","m09773","Thu Feb 10 2022 08:02:07 GMT+0100 (Central European Standard Time)","2022","2","10","8","2","7","sz16","19","female","right","57","54","28","0","10","","","","","test","fear","happy","f","true"
"null","<div style=""font-size:60px;"">+</div>","null","html-keyboard-response","23","95201","0.0-9.0-0.7","m09773","Thu Feb 10 2022 08:02:07 GMT+0100 (Central European Standard Time)","2022","2","10","8","2","7","sz16","19","female","right","57","54","28","0","10","","","","","fixation","","","",""
"589.6000000238419","img/image_stim_f.png","70","image-keyboard-response","24","95792","0.0-9.0-1.7","m09773","Thu Feb 10 2022 08:02:07 GMT+0100 (Central European Standard Time)","2022","2","10","8","2","7","sz16","19","female","right","57","54","28","0","10","","","","","test","fear","fear","f","true"
"null","<div style=""font-size:60px;"">+</div>","null","html-keyboard-response","25","97051","0.0-9.0-0.8","m09773","Thu Feb 10 2022 08:02:07 GMT+0100 (Central European Standard Time)","2022","2","10","8","2","7","sz16","19","female","right","57","54","28","0","10","","","","","fixation","","","",""
"555.7000000476837","img/image_stim_h.png","72","image-keyboard-response","26","97608","0.0-9.0-1.8","m09773","Thu Feb 10 2022 08:02:07 GMT+0100 (Central European Standard Time)","2022","2","10","8","2","7","sz16","19","female","right","57","54","28","0","10","","","","","test","happy","happy","h","true"
"null","<div style=""font-size:60px;"">+</div>","null","html-keyboard-response","27","97866","0.0-9.0-0.9","m09773","Thu Feb 10 2022 08:02:07 GMT+0100 (Central European Standard Time)","2022","2","10","8","2","7","sz16","19","female","right","57","54","28","0","10","","","","","fixation","","","",""
"595","img/image_stim_h_stroop.png","72","image-keyboard-response","28","98462","0.0-9.0-1.9","m09773","Thu Feb 10 2022 08:02:07 GMT+0100 (Central European Standard Time)","2022","2","10","8","2","7","sz16","19","female","right","57","54","28","0","10","","","","","test","happy","fear","h","true"
"null","<div style=""font-size:60px;"">+</div>","null","html-keyboard-response","29","100217","0.0-9.0-0.10","m09773","Thu Feb 10 2022 08:02:07 GMT+0100 (Central European Standard Time)","2022","2","10","8","2","7","sz16","19","female","right","57","54","28","0","10","","","","","fixation","","","",""
"440.7999999523163","img/image_stim_f.png","70","image-keyboard-response","30","100659","0.0-9.0-1.10","m09773","Thu Feb 10 2022 08:02:07 GMT+0100 (Central European Standard Time)","2022","2","10","8","2","7","sz16","19","female","right","57","54","28","0","10","","","","","test","fear","fear","f","true"
"null","<div style=""font-size:60px;"">+</div>","null","html-keyboard-response","31","101917","0.0-9.0-0.11","m09773","Thu Feb 10 2022 08:02:07 GMT+0100 (Central European Standard Time)","2022","2","10","8","2","7","sz16","19","female","right","57","54","28","0","10","","","","","fixation","","","",""
"521","img/image_stim_f_stroop.png","70","image-keyboard-response","32","102439","0.0-9.0-1.11","m09773","Thu Feb 10 2022 08:02:07 GMT+0100 (Central European Standard Time)","2022","2","10","8","2","7","sz16","19","female","right","57","54","28","0","10","","","","","test","fear","happy","f","true"
"null","<div style=""font-size:60px;"">+</div>","null","html-keyboard-response","33","104195","0.0-9.0-0.12","m09773","Thu Feb 10 2022 08:02:07 GMT+0100 (Central European Standard Time)","2022","2","10","8","2","7","sz16","19","female","right","57","54","28","0","10","","","","","fixation","","","",""
"402.8000000715256","img/image_stim_h.png","72","image-keyboard-response","34","104599","0.0-9.0-1.12","m09773","Thu Feb 10 2022 08:02:07 GMT+0100 (Central European Standard Time)","2022","2","10","8","2","7","sz16","19","female","right","57","54","28","0","10","","","","","test","happy","happy","h","true"
"null","<div style=""font-size:60px;"">+</div>","null","html-keyboard-response","35","106608","0.0-9.0-0.13","m09773","Thu Feb 10 2022 08:02:07 GMT+0100 (Central European Standard Time)","2022","2","10","8","2","7","sz16","19","female","right","57","54","28","0","10","","","","","fixation","","","",""
"638.8999999761581","img/image_stim_h_stroop.png","72","image-keyboard-response","36","107248","0.0-9.0-1.13","m09773","Thu Feb 10 2022 08:02:07 GMT+0100 (Central European Standard Time)","2022","2","10","8","2","7","sz16","19","female","right","57","54","28","0","10","","","","","test","happy","fear","h","true"
"null","<div style=""font-size:60px;"">+</div>","null","html-keyboard-response","37","109252","0.0-9.0-0.14","m09773","Thu Feb 10 2022 08:02:07 GMT+0100 (Central European Standard Time)","2022","2","10","8","2","7","sz16","19","female","right","57","54","28","0","10","","","","","fixation","","","",""
"431.7000000476837","img/image_stim_f_stroop.png","70","image-keyboard-response","38","109685","0.0-9.0-1.14","m09773","Thu Feb 10 2022 08:02:07 GMT+0100 (Central European Standard Time)","2022","2","10","8","2","7","sz16","19","female","right","57","54","28","0","10","","","","","test","fear","happy","f","true"
"null","<div style=""font-size:60px;"">+</div>","null","html-keyboard-response","39","109942","0.0-9.0-0.15","m09773","Thu Feb 10 2022 08:02:07 GMT+0100 (Central European Standard Time)","2022","2","10","8","2","7","sz16","19","female","right","57","54","28","0","10","","","","","fixation","","","",""
"606.0999999046326","img/image_stim_f.png","70","image-keyboard-response","40","110549","0.0-9.0-1.15","m09773","Thu Feb 10 2022 08:02:07 GMT+0100 (Central European Standard Time)","2022","2","10","8","2","7","sz16","19","female","right","57","54","28","0","10","","","","","test","fear","fear","f","true"
"null","<div style=""font-size:60px;"">+</div>","null","html-keyboard-response","41","111058","0.0-9.0-0.16","m09773","Thu Feb 10 2022 08:02:07 GMT+0100 (Central European Standard Time)","2022","2","10","8","2","7","sz16","19","female","right","57","54","28","0","10","","","","","fixation","","","",""
"555.5","img/image_stim_h.png","72","image-keyboard-response","42","111615","0.0-9.0-1.16","m09773","Thu Feb 10 2022 08:02:07 GMT+0100 (Central European Standard Time)","2022","2","10","8","2","7","sz16","19","female","right","57","54","28","0","10","","","","","test","happy","happy","h","true"
"null","<div style=""font-size:60px;"">+</div>","null","html-keyboard-response","43","111869","0.0-9.0-0.17","m09773","Thu Feb 10 2022 08:02:07 GMT+0100 (Central European Standard Time)","2022","2","10","8","2","7","sz16","19","female","right","57","54","28","0","10","","","","","fixation","","","",""
"630.5","img/image_stim_f.png","70","image-keyboard-response","44","112501","0.0-9.0-1.17","m09773","Thu Feb 10 2022 08:02:07 GMT+0100 (Central European Standard Time)","2022","2","10","8","2","7","sz16","19","female","right","57","54","28","0","10","","","","","test","fear","fear","f","true"
"null","<div style=""font-size:60px;"">+</div>","null","html-keyboard-response","45","114009","0.0-9.0-0.18","m09773","Thu Feb 10 2022 08:02:07 GMT+0100 (Central European Standard Time)","2022","2","10","8","2","7","sz16","19","female","right","57","54","28","0","10","","","","","fixation","","","",""
"780","img/image_stim_f_stroop.png","70","image-keyboard-response","46","114790","0.0-9.0-1.18","m09773","Thu Feb 10 2022 08:02:07 GMT+0100 (Central European Standard Time)","2022","2","10","8","2","7","sz16","19","female","right","57","54","28","0","10","","","","","test","fear","happy","f","true"
"null","<div style=""font-size:60px;"">+</div>","null","html-keyboard-response","47","115048","0.0-9.0-0.19","m09773","Thu Feb 10 2022 08:02:07 GMT+0100 (Central European Standard Time)","2022","2","10","8","2","7","sz16","19","female","right","57","54","28","0","10","","","","","fixation","","","",""
"663.1000000238419","img/image_stim_h_stroop.png","72","image-keyboard-response","48","115713","0.0-9.0-1.19","m09773","Thu Feb 10 2022 08:02:07 GMT+0100 (Central European Standard Time)","2022","2","10","8","2","7","sz16","19","female","right","57","54","28","0","10","","","","","test","happy","fear","h","true"
"null","<div style=""font-size:60px;"">+</div>","null","html-keyboard-response","49","116217","0.0-9.0-0.20","m09773","Thu Feb 10 2022 08:02:07 GMT+0100 (Central European Standard Time)","2022","2","10","8","2","7","sz16","19","female","right","57","54","28","0","10","","","","","fixation","","","",""
"718.3000000715256","img/image_stim_h_stroop.png","72","image-keyboard-response","50","116936","0.0-9.0-1.20","m09773","Thu Feb 10 2022 08:02:07 GMT+0100 (Central European Standard Time)","2022","2","10","8","2","7","sz16","19","female","right","57","54","28","0","10","","","","","test","happy","fear","h","true"
"null","<div style=""font-size:60px;"">+</div>","null","html-keyboard-response","51","117942","0.0-9.0-0.21","m09773","Thu Feb 10 2022 08:02:07 GMT+0100 (Central European Standard Time)","2022","2","10","8","2","7","sz16","19","female","right","57","54","28","0","10","","","","","fixation","","","",""
"542.7999999523163","img/image_stim_h.png","72","image-keyboard-response","52","118486","0.0-9.0-1.21","m09773","Thu Feb 10 2022 08:02:07 GMT+0100 (Central European Standard Time)","2022","2","10","8","2","7","sz16","19","female","right","57","54","28","0","10","","","","","test","happy","happy","h","true"
"null","<div style=""font-size:60px;"">+</div>","null","html-keyboard-response","53","119241","0.0-9.0-0.22","m09773","Thu Feb 10 2022 08:02:07 GMT+0100 (Central European Standard Time)","2022","2","10","8","2","7","sz16","19","female","right","57","54","28","0","10","","","","","fixation","","","",""
"566.6000000238419","img/image_stim_f.png","70","image-keyboard-response","54","119809","0.0-9.0-1.22","m09773","Thu Feb 10 2022 08:02:07 GMT+0100 (Central European Standard Time)","2022","2","10","8","2","7","sz16","19","female","right","57","54","28","0","10","","","","","test","fear","fear","f","true"
"null","<div style=""font-size:60px;"">+</div>","null","html-keyboard-response","55","120071","0.0-9.0-0.23","m09773","Thu Feb 10 2022 08:02:07 GMT+0100 (Central European Standard Time)","2022","2","10","8","2","7","sz16","19","female","right","57","54","28","0","10","","","","","fixation","","","",""
"966","img/image_stim_f_stroop.png","70","image-keyboard-response","56","121039","0.0-9.0-1.23","m09773","Thu Feb 10 2022 08:02:07 GMT+0100 (Central European Standard Time)","2022","2","10","8","2","7","sz16","19","female","right","57","54","28","0","10","","","","","test","fear","happy","f","true"
"null","<div style=""font-size:60px;"">+</div>","null","html-keyboard-response","57","122049","0.0-9.0-0.24","m09773","Thu Feb 10 2022 08:02:07 GMT+0100 (Central European Standard Time)","2022","2","10","8","2","7","sz16","19","female","right","57","54","28","0","10","","","","","fixation","","","",""
"445.1999999284744","img/image_stim_f_stroop.png","70","image-keyboard-response","58","122496","0.0-9.0-1.24","m09773","Thu Feb 10 2022 08:02:07 GMT+0100 (Central European Standard Time)","2022","2","10","8","2","7","sz16","19","female","right","57","54","28","0","10","","","","","test","fear","happy","f","true"
"null","<div style=""font-size:60px;"">+</div>","null","html-keyboard-response","59","124251","0.0-9.0-0.25","m09773","Thu Feb 10 2022 08:02:07 GMT+0100 (Central European Standard Time)","2022","2","10","8","2","7","sz16","19","female","right","57","54","28","0","10","","","","","fixation","","","",""
"387.7999999523163","img/image_stim_h_stroop.png","72","image-keyboard-response","60","124641","0.0-9.0-1.25","m09773","Thu Feb 10 2022 08:02:07 GMT+0100 (Central European Standard Time)","2022","2","10","8","2","7","sz16","19","female","right","57","54","28","0","10","","","","","test","happy","fear","h","true"
"null","<div style=""font-size:60px;"">+</div>","null","html-keyboard-response","61","125149","0.0-9.0-0.26","m09773","Thu Feb 10 2022 08:02:07 GMT+0100 (Central European Standard Time)","2022","2","10","8","2","7","sz16","19","female","right","57","54","28","0","10","","","","","fixation","","","",""
"623","img/image_stim_h.png","72","image-keyboard-response","62","125774","0.0-9.0-1.26","m09773","Thu Feb 10 2022 08:02:07 GMT+0100 (Central European Standard Time)","2022","2","10","8","2","7","sz16","19","female","right","57","54","28","0","10","","","","","test","happy","happy","h","true"
"null","<div style=""font-size:60px;"">+</div>","null","html-keyboard-response","63","127283","0.0-9.0-0.27","m09773","Thu Feb 10 2022 08:02:07 GMT+0100 (Central European Standard Time)","2022","2","10","8","2","7","sz16","19","female","right","57","54","28","0","10","","","","","fixation","","","",""
"385.60000002384186","img/image_stim_f.png","70","image-keyboard-response","64","127671","0.0-9.0-1.27","m09773","Thu Feb 10 2022 08:02:07 GMT+0100 (Central European Standard Time)","2022","2","10","8","2","7","sz16","19","female","right","57","54","28","0","10","","","","","test","fear","fear","f","true"
"null","<div style=""font-size:60px;"">+</div>","null","html-keyboard-response","65","128674","0.0-9.0-0.28","m09773","Thu Feb 10 2022 08:02:07 GMT+0100 (Central European Standard Time)","2022","2","10","8","2","7","sz16","19","female","right","57","54","28","0","10","","","","","fixation","","","",""
"529.4000000953674","img/image_stim_h_stroop.png","72","image-keyboard-response","66","129204","0.0-9.0-1.28","m09773","Thu Feb 10 2022 08:02:07 GMT+0100 (Central European Standard Time)","2022","2","10","8","2","7","sz16","19","female","right","57","54","28","0","10","","","","","test","happy","fear","h","true"
"null","<div style=""font-size:60px;"">+</div>","null","html-keyboard-response","67","130959","0.0-9.0-0.29","m09773","Thu Feb 10 2022 08:02:07 GMT+0100 (Central European Standard Time)","2022","2","10","8","2","7","sz16","19","female","right","57","54","28","0","10","","","","","fixation","","","",""
"683.1000000238419","img/image_stim_f.png","70","image-keyboard-response","68","131643","0.0-9.0-1.29","m09773","Thu Feb 10 2022 08:02:07 GMT+0100 (Central European Standard Time)","2022","2","10","8","2","7","sz16","19","female","right","57","54","28","0","10","","","","","test","fear","fear","f","true"
"null","<div style=""font-size:60px;"">+</div>","null","html-keyboard-response","69","132154","0.0-9.0-0.30","m09773","Thu Feb 10 2022 08:02:07 GMT+0100 (Central European Standard Time)","2022","2","10","8","2","7","sz16","19","female","right","57","54","28","0","10","","","","","fixation","","","",""
"582.7000000476837","img/image_stim_f_stroop.png","70","image-keyboard-response","70","132739","0.0-9.0-1.30","m09773","Thu Feb 10 2022 08:02:07 GMT+0100 (Central European Standard Time)","2022","2","10","8","2","7","sz16","19","female","right","57","54","28","0","10","","","","","test","fear","happy","f","true"
"null","<div style=""font-size:60px;"">+</div>","null","html-keyboard-response","71","133007","0.0-9.0-0.31","m09773","Thu Feb 10 2022 08:02:07 GMT+0100 (Central European Standard Time)","2022","2","10","8","2","7","sz16","19","female","right","57","54","28","0","10","","","","","fixation","","","",""
"566.2000000476837","img/image_stim_h.png","72","image-keyboard-response","72","133574","0.0-9.0-1.31","m09773","Thu Feb 10 2022 08:02:07 GMT+0100 (Central European Standard Time)","2022","2","10","8","2","7","sz16","19","female","right","57","54","28","0","10","","","","","test","happy","happy","h","true"
"null","<div style=""font-size:60px;"">+</div>","null","html-keyboard-response","73","135082","0.0-9.0-0.32","m09773","Thu Feb 10 2022 08:02:07 GMT+0100 (Central European Standard Time)","2022","2","10","8","2","7","sz16","19","female","right","57","54","28","0","10","","","","","fixation","","","",""
"572.1999999284744","img/image_stim_h_stroop.png","72","image-keyboard-response","74","135655","0.0-9.0-1.32","m09773","Thu Feb 10 2022 08:02:07 GMT+0100 (Central European Standard Time)","2022","2","10","8","2","7","sz16","19","female","right","57","54","28","0","10","","","","","test","happy","fear","h","true"
"null","<div style=""font-size:60px;"">+</div>","null","html-keyboard-response","75","136908","0.0-9.0-0.33","m09773","Thu Feb 10 2022 08:02:07 GMT+0100 (Central European Standard Time)","2022","2","10","8","2","7","sz16","19","female","right","57","54","28","0","10","","","","","fixation","","","",""
"504.2000000476837","img/image_stim_h.png","72","image-keyboard-response","76","137413","0.0-9.0-1.33","m09773","Thu Feb 10 2022 08:02:07 GMT+0100 (Central European Standard Time)","2022","2","10","8","2","7","sz16","19","female","right","57","54","28","0","10","","","","","test","happy","happy","h","true"
"null","<div style=""font-size:60px;"">+</div>","null","html-keyboard-response","77","138174","0.0-9.0-0.34","m09773","Thu Feb 10 2022 08:02:07 GMT+0100 (Central European Standard Time)","2022","2","10","8","2","7","sz16","19","female","right","57","54","28","0","10","","","","","fixation","","","",""
"607.1999999284744","img/image_stim_f_stroop.png","70","image-keyboard-response","78","138783","0.0-9.0-1.34","m09773","Thu Feb 10 2022 08:02:07 GMT+0100 (Central European Standard Time)","2022","2","10","8","2","7","sz16","19","female","right","57","54","28","0","10","","","","","test","fear","happy","f","true"
"null","<div style=""font-size:60px;"">+</div>","null","html-keyboard-response","79","140541","0.0-9.0-0.35","m09773","Thu Feb 10 2022 08:02:07 GMT+0100 (Central European Standard Time)","2022","2","10","8","2","7","sz16","19","female","right","57","54","28","0","10","","","","","fixation","","","",""
"683.9000000953674","img/image_stim_f.png","70","image-keyboard-response","80","141226","0.0-9.0-1.35","m09773","Thu Feb 10 2022 08:02:07 GMT+0100 (Central European Standard Time)","2022","2","10","8","2","7","sz16","19","female","right","57","54","28","0","10","","","","","test","fear","fear","f","true"
