"rt","stimulus","key_press","trial_type","trial_index","time_elapsed","internal_node_id","exp_id","Time","year","month","date","hour","minute","seconds","id","age","Gender","Handedness","mood","fresh","hunger","H_since_Sleep","H_since_Eat","responses","question_order","slider_start","response","test_part","face","word","correct_response","correct"
"44138","<p>Welcome to this experiment on daily rhythms and cognition.</p><p>First you will be asked some questions about yourself.</p><p>Then a short experiment will measure your response time.</p><p>Take the test at different times of the day/night.</p><p>The test is anonymous, but comparing your data across time is important.</p><p>Therefore, please make up and remember a personal ID (two letters+ two numbers).</p><p>Use this ID whenever taking the test.</p><p><strong>Press any key to begin.</strong></p>","32","html-keyboard-response","0","44145","0.0-0.0","5wtlaa","Wed Feb 10 2021 08:45:14 GMT+0100 (CET)","2021","2","10","8","45","14","tx12","20","female","right","50","27","0","0","13","","","","","","","","",""
"4442.999999999993","","","survey-text","1","48617","0.0-1.0","5wtlaa","Wed Feb 10 2021 08:45:14 GMT+0100 (CET)","2021","2","10","8","45","14","tx12","20","female","right","50","27","0","0","13","{""Q0"":""tx12""}","","","","","","","",""
"2843","","","survey-text","2","51464","0.0-2.0","5wtlaa","Wed Feb 10 2021 08:45:14 GMT+0100 (CET)","2021","2","10","8","45","14","tx12","20","female","right","50","27","0","0","13","{""Q0"":""20""}","","","","","","","",""
"4921","","","survey-multi-select","3","56388","0.0-3.0","5wtlaa","Wed Feb 10 2021 08:45:14 GMT+0100 (CET)","2021","2","10","8","45","14","tx12","20","female","right","50","27","0","0","13","{""Gender"":[""female""],""Hand"":[""right""]}","[0,1]","","","","","","",""
"9294","<p>How Sad/Angry or Happy are you right now?</p>","","html-slider-response","4","65687","0.0-4.0","5wtlaa","Wed Feb 10 2021 08:45:14 GMT+0100 (CET)","2021","2","10","8","45","14","tx12","20","female","right","50","27","0","0","13","","","50","50","","","","",""
"11980","<p>How Tired/Sleepy/Distracted or Fresh/Awake/Alert are you right now?</p>","","html-slider-response","5","77668","0.0-5.0","5wtlaa","Wed Feb 10 2021 08:45:14 GMT+0100 (CET)","2021","2","10","8","45","14","tx12","20","female","right","50","27","0","0","13","","","50","27","","","","",""
"2438","<p>How Hungry or Satiated are you right now?</p>","","html-slider-response","6","80108","0.0-6.0","5wtlaa","Wed Feb 10 2021 08:45:14 GMT+0100 (CET)","2021","2","10","8","45","14","tx12","20","female","right","50","27","0","0","13","","","50","0","","","","",""
"32780","","","survey-multi-select","7","112897","0.0-7.0","5wtlaa","Wed Feb 10 2021 08:45:14 GMT+0100 (CET)","2021","2","10","8","45","14","tx12","20","female","right","50","27","0","0","13","{""Sleep"":[""0""],""Eat"":[""13""]}","[0,1]","","","","","","",""
"34651.999999999985","<p>In this experiment, a face and a word will appear in the center of the screen.</p><p>If the face is <strong>happy</strong>, press the letter <strong>H</strong> with <strong>right</strong> index finger.</p><p>If the face is <strong>fearful</strong>, press the letter <strong>F</strong> with <strong>left</strong> index finger.</p><p><strong>Ignore the written words</strong>. Respond as fast as possible while being correct. </p><div style='width: 900px;'><div style='float: left;'><img src='img/stimuli_stroop_happy.png'></img><p class='small'><strong>Press the H key for happy faces</strong></p></div><div class='float: right;'><img src='img/stimuli_stroop_fear.png'></img><p class='small'><strong>Press the F key for faces with fear</strong></p></div></div><p>If the screen turns blank, press <strong>SPACE</strong></p><p><strong>Press any key to begin.</strong></p>","32","html-keyboard-response","8","147556","0.0-8.0","5wtlaa","Wed Feb 10 2021 08:45:14 GMT+0100 (CET)","2021","2","10","8","45","14","tx12","20","female","right","50","27","0","0","13","","","","","","","","",""
"null","<div style=""font-size:60px;"">+</div>","null","html-keyboard-response","9","150558","0.0-9.0-0.0","5wtlaa","Wed Feb 10 2021 08:45:14 GMT+0100 (CET)","2021","2","10","8","45","14","tx12","20","female","right","50","27","0","0","13","","","","","fixation","","","",""
"1395","img/image_stim_h_stroop.png","72","image-keyboard-response","10","151958","0.0-9.0-1.0","5wtlaa","Wed Feb 10 2021 08:45:14 GMT+0100 (CET)","2021","2","10","8","45","14","tx12","20","female","right","50","27","0","0","13","","","","","test","happy","fear","h","true"
"null","<div style=""font-size:60px;"">+</div>","null","html-keyboard-response","11","152214","0.0-9.0-0.1","5wtlaa","Wed Feb 10 2021 08:45:14 GMT+0100 (CET)","2021","2","10","8","45","14","tx12","20","female","right","50","27","0","0","13","","","","","fixation","","","",""
"1078","img/image_stim_f_stroop.png","70","image-keyboard-response","12","153295","0.0-9.0-1.1","5wtlaa","Wed Feb 10 2021 08:45:14 GMT+0100 (CET)","2021","2","10","8","45","14","tx12","20","female","right","50","27","0","0","13","","","","","test","fear","happy","f","true"
"null","<div style=""font-size:60px;"">+</div>","null","html-keyboard-response","13","154547","0.0-9.0-0.2","5wtlaa","Wed Feb 10 2021 08:45:14 GMT+0100 (CET)","2021","2","10","8","45","14","tx12","20","female","right","50","27","0","0","13","","","","","fixation","","","",""
"826","img/image_stim_h.png","72","image-keyboard-response","14","155376","0.0-9.0-1.2","5wtlaa","Wed Feb 10 2021 08:45:14 GMT+0100 (CET)","2021","2","10","8","45","14","tx12","20","female","right","50","27","0","0","13","","","","","test","happy","happy","h","true"
"null","<div style=""font-size:60px;"">+</div>","null","html-keyboard-response","15","156128","0.0-9.0-0.3","5wtlaa","Wed Feb 10 2021 08:45:14 GMT+0100 (CET)","2021","2","10","8","45","14","tx12","20","female","right","50","27","0","0","13","","","","","fixation","","","",""
"745","img/image_stim_f.png","70","image-keyboard-response","16","156876","0.0-9.0-1.3","5wtlaa","Wed Feb 10 2021 08:45:14 GMT+0100 (CET)","2021","2","10","8","45","14","tx12","20","female","right","50","27","0","0","13","","","","","test","fear","fear","f","true"
"null","<div style=""font-size:60px;"">+</div>","null","html-keyboard-response","17","158878","0.0-9.0-0.4","5wtlaa","Wed Feb 10 2021 08:45:14 GMT+0100 (CET)","2021","2","10","8","45","14","tx12","20","female","right","50","27","0","0","13","","","","","fixation","","","",""
"1605.000000000029","img/image_stim_h_stroop.png","72","image-keyboard-response","18","160484","0.0-9.0-1.4","5wtlaa","Wed Feb 10 2021 08:45:14 GMT+0100 (CET)","2021","2","10","8","45","14","tx12","20","female","right","50","27","0","0","13","","","","","test","happy","fear","h","true"
"null","<div style=""font-size:60px;"">+</div>","null","html-keyboard-response","19","160736","0.0-9.0-0.5","5wtlaa","Wed Feb 10 2021 08:45:14 GMT+0100 (CET)","2021","2","10","8","45","14","tx12","20","female","right","50","27","0","0","13","","","","","fixation","","","",""
"788.0000000000291","img/image_stim_h.png","72","image-keyboard-response","20","161526","0.0-9.0-1.5","5wtlaa","Wed Feb 10 2021 08:45:14 GMT+0100 (CET)","2021","2","10","8","45","14","tx12","20","female","right","50","27","0","0","13","","","","","test","happy","happy","h","true"
"null","<div style=""font-size:60px;"">+</div>","null","html-keyboard-response","21","163278","0.0-9.0-0.6","5wtlaa","Wed Feb 10 2021 08:45:14 GMT+0100 (CET)","2021","2","10","8","45","14","tx12","20","female","right","50","27","0","0","13","","","","","fixation","","","",""
"1350","img/image_stim_f_stroop.png","70","image-keyboard-response","22","164630","0.0-9.0-1.6","5wtlaa","Wed Feb 10 2021 08:45:14 GMT+0100 (CET)","2021","2","10","8","45","14","tx12","20","female","right","50","27","0","0","13","","","","","test","fear","happy","f","true"
"null","<div style=""font-size:60px;"">+</div>","null","html-keyboard-response","23","166632","0.0-9.0-0.7","5wtlaa","Wed Feb 10 2021 08:45:14 GMT+0100 (CET)","2021","2","10","8","45","14","tx12","20","female","right","50","27","0","0","13","","","","","fixation","","","",""
"2302.999999999971","img/image_stim_f.png","70","image-keyboard-response","24","168936","0.0-9.0-1.7","5wtlaa","Wed Feb 10 2021 08:45:14 GMT+0100 (CET)","2021","2","10","8","45","14","tx12","20","female","right","50","27","0","0","13","","","","","test","fear","fear","f","true"
"null","<div style=""font-size:60px;"">+</div>","null","html-keyboard-response","25","170188","0.0-9.0-0.8","5wtlaa","Wed Feb 10 2021 08:45:14 GMT+0100 (CET)","2021","2","10","8","45","14","tx12","20","female","right","50","27","0","0","13","","","","","fixation","","","",""
"856","img/image_stim_h_stroop.png","72","image-keyboard-response","26","171045","0.0-9.0-1.8","5wtlaa","Wed Feb 10 2021 08:45:14 GMT+0100 (CET)","2021","2","10","8","45","14","tx12","20","female","right","50","27","0","0","13","","","","","test","happy","fear","h","true"
"null","<div style=""font-size:60px;"">+</div>","null","html-keyboard-response","27","172298","0.0-9.0-0.9","5wtlaa","Wed Feb 10 2021 08:45:14 GMT+0100 (CET)","2021","2","10","8","45","14","tx12","20","female","right","50","27","0","0","13","","","","","fixation","","","",""
"1857","img/image_stim_f.png","70","image-keyboard-response","28","174156","0.0-9.0-1.9","5wtlaa","Wed Feb 10 2021 08:45:14 GMT+0100 (CET)","2021","2","10","8","45","14","tx12","20","female","right","50","27","0","0","13","","","","","test","fear","fear","f","true"
"null","<div style=""font-size:60px;"">+</div>","null","html-keyboard-response","29","175908","0.0-9.0-0.10","5wtlaa","Wed Feb 10 2021 08:45:14 GMT+0100 (CET)","2021","2","10","8","45","14","tx12","20","female","right","50","27","0","0","13","","","","","fixation","","","",""
"715","img/image_stim_h.png","72","image-keyboard-response","30","176625","0.0-9.0-1.10","5wtlaa","Wed Feb 10 2021 08:45:14 GMT+0100 (CET)","2021","2","10","8","45","14","tx12","20","female","right","50","27","0","0","13","","","","","test","happy","happy","h","true"
"null","<div style=""font-size:60px;"">+</div>","null","html-keyboard-response","31","177628","0.0-9.0-0.11","5wtlaa","Wed Feb 10 2021 08:45:14 GMT+0100 (CET)","2021","2","10","8","45","14","tx12","20","female","right","50","27","0","0","13","","","","","fixation","","","",""
"923","img/image_stim_f_stroop.png","70","image-keyboard-response","32","178553","0.0-9.0-1.11","5wtlaa","Wed Feb 10 2021 08:45:14 GMT+0100 (CET)","2021","2","10","8","45","14","tx12","20","female","right","50","27","0","0","13","","","","","test","fear","happy","f","true"
"null","<div style=""font-size:60px;"">+</div>","null","html-keyboard-response","33","180055","0.0-9.0-0.12","5wtlaa","Wed Feb 10 2021 08:45:14 GMT+0100 (CET)","2021","2","10","8","45","14","tx12","20","female","right","50","27","0","0","13","","","","","fixation","","","",""
"745","img/image_stim_f.png","70","image-keyboard-response","34","180802","0.0-9.0-1.12","5wtlaa","Wed Feb 10 2021 08:45:14 GMT+0100 (CET)","2021","2","10","8","45","14","tx12","20","female","right","50","27","0","0","13","","","","","test","fear","fear","f","true"
"null","<div style=""font-size:60px;"">+</div>","null","html-keyboard-response","35","182055","0.0-9.0-0.13","5wtlaa","Wed Feb 10 2021 08:45:14 GMT+0100 (CET)","2021","2","10","8","45","14","tx12","20","female","right","50","27","0","0","13","","","","","fixation","","","",""
"3476.000000000029","img/image_stim_f_stroop.png","70","image-keyboard-response","36","185538","0.0-9.0-1.13","5wtlaa","Wed Feb 10 2021 08:45:14 GMT+0100 (CET)","2021","2","10","8","45","14","tx12","20","female","right","50","27","0","0","13","","","","","test","fear","happy","f","true"
"null","<div style=""font-size:60px;"">+</div>","null","html-keyboard-response","37","187041","0.0-9.0-0.14","5wtlaa","Wed Feb 10 2021 08:45:14 GMT+0100 (CET)","2021","2","10","8","45","14","tx12","20","female","right","50","27","0","0","13","","","","","fixation","","","",""
"676","img/image_stim_h.png","72","image-keyboard-response","38","187719","0.0-9.0-1.14","5wtlaa","Wed Feb 10 2021 08:45:14 GMT+0100 (CET)","2021","2","10","8","45","14","tx12","20","female","right","50","27","0","0","13","","","","","test","happy","happy","h","true"
"null","<div style=""font-size:60px;"">+</div>","null","html-keyboard-response","39","188222","0.0-9.0-0.15","5wtlaa","Wed Feb 10 2021 08:45:14 GMT+0100 (CET)","2021","2","10","8","45","14","tx12","20","female","right","50","27","0","0","13","","","","","fixation","","","",""
"720","img/image_stim_h_stroop.png","70","image-keyboard-response","40","188944","0.0-9.0-1.15","5wtlaa","Wed Feb 10 2021 08:45:14 GMT+0100 (CET)","2021","2","10","8","45","14","tx12","20","female","right","50","27","0","0","13","","","","","test","happy","fear","h","false"
"null","<div style=""font-size:60px;"">+</div>","null","html-keyboard-response","41","190701","0.0-9.0-0.16","5wtlaa","Wed Feb 10 2021 08:45:14 GMT+0100 (CET)","2021","2","10","8","45","14","tx12","20","female","right","50","27","0","0","13","","","","","fixation","","","",""
"594","img/image_stim_f.png","70","image-keyboard-response","42","191297","0.0-9.0-1.16","5wtlaa","Wed Feb 10 2021 08:45:14 GMT+0100 (CET)","2021","2","10","8","45","14","tx12","20","female","right","50","27","0","0","13","","","","","test","fear","fear","f","true"
"null","<div style=""font-size:60px;"">+</div>","null","html-keyboard-response","43","192300","0.0-9.0-0.17","5wtlaa","Wed Feb 10 2021 08:45:14 GMT+0100 (CET)","2021","2","10","8","45","14","tx12","20","female","right","50","27","0","0","13","","","","","fixation","","","",""
"853","img/image_stim_f_stroop.png","70","image-keyboard-response","44","193154","0.0-9.0-1.17","5wtlaa","Wed Feb 10 2021 08:45:14 GMT+0100 (CET)","2021","2","10","8","45","14","tx12","20","female","right","50","27","0","0","13","","","","","test","fear","happy","f","true"
"null","<div style=""font-size:60px;"">+</div>","null","html-keyboard-response","45","193907","0.0-9.0-0.18","5wtlaa","Wed Feb 10 2021 08:45:14 GMT+0100 (CET)","2021","2","10","8","45","14","tx12","20","female","right","50","27","0","0","13","","","","","fixation","","","",""
"700.0000000000291","img/image_stim_h_stroop.png","72","image-keyboard-response","46","194609","0.0-9.0-1.18","5wtlaa","Wed Feb 10 2021 08:45:14 GMT+0100 (CET)","2021","2","10","8","45","14","tx12","20","female","right","50","27","0","0","13","","","","","test","happy","fear","h","true"
"null","<div style=""font-size:60px;"">+</div>","null","html-keyboard-response","47","195363","0.0-9.0-0.19","5wtlaa","Wed Feb 10 2021 08:45:14 GMT+0100 (CET)","2021","2","10","8","45","14","tx12","20","female","right","50","27","0","0","13","","","","","fixation","","","",""
"677.9999999999709","img/image_stim_h.png","72","image-keyboard-response","48","196043","0.0-9.0-1.19","5wtlaa","Wed Feb 10 2021 08:45:14 GMT+0100 (CET)","2021","2","10","8","45","14","tx12","20","female","right","50","27","0","0","13","","","","","test","happy","happy","h","true"
"null","<div style=""font-size:60px;"">+</div>","null","html-keyboard-response","49","197046","0.0-9.0-0.20","5wtlaa","Wed Feb 10 2021 08:45:14 GMT+0100 (CET)","2021","2","10","8","45","14","tx12","20","female","right","50","27","0","0","13","","","","","fixation","","","",""
"774","img/image_stim_f.png","70","image-keyboard-response","50","197821","0.0-9.0-1.20","5wtlaa","Wed Feb 10 2021 08:45:14 GMT+0100 (CET)","2021","2","10","8","45","14","tx12","20","female","right","50","27","0","0","13","","","","","test","fear","fear","f","true"
"null","<div style=""font-size:60px;"">+</div>","null","html-keyboard-response","51","199075","0.0-9.0-0.21","5wtlaa","Wed Feb 10 2021 08:45:14 GMT+0100 (CET)","2021","2","10","8","45","14","tx12","20","female","right","50","27","0","0","13","","","","","fixation","","","",""
"580","img/image_stim_h.png","72","image-keyboard-response","52","199656","0.0-9.0-1.21","5wtlaa","Wed Feb 10 2021 08:45:14 GMT+0100 (CET)","2021","2","10","8","45","14","tx12","20","female","right","50","27","0","0","13","","","","","test","happy","happy","h","true"
"null","<div style=""font-size:60px;"">+</div>","null","html-keyboard-response","53","199916","0.0-9.0-0.22","5wtlaa","Wed Feb 10 2021 08:45:14 GMT+0100 (CET)","2021","2","10","8","45","14","tx12","20","female","right","50","27","0","0","13","","","","","fixation","","","",""
"1028","img/image_stim_h_stroop.png","72","image-keyboard-response","54","200946","0.0-9.0-1.22","5wtlaa","Wed Feb 10 2021 08:45:14 GMT+0100 (CET)","2021","2","10","8","45","14","tx12","20","female","right","50","27","0","0","13","","","","","test","happy","fear","h","true"
"null","<div style=""font-size:60px;"">+</div>","null","html-keyboard-response","55","202449","0.0-9.0-0.23","5wtlaa","Wed Feb 10 2021 08:45:14 GMT+0100 (CET)","2021","2","10","8","45","14","tx12","20","female","right","50","27","0","0","13","","","","","fixation","","","",""
"453","img/image_stim_f_stroop.png","70","image-keyboard-response","56","202903","0.0-9.0-1.23","5wtlaa","Wed Feb 10 2021 08:45:14 GMT+0100 (CET)","2021","2","10","8","45","14","tx12","20","female","right","50","27","0","0","13","","","","","test","fear","happy","f","true"
"null","<div style=""font-size:60px;"">+</div>","null","html-keyboard-response","57","204657","0.0-9.0-0.24","5wtlaa","Wed Feb 10 2021 08:45:14 GMT+0100 (CET)","2021","2","10","8","45","14","tx12","20","female","right","50","27","0","0","13","","","","","fixation","","","",""
"520","img/image_stim_h.png","72","image-keyboard-response","58","205179","0.0-9.0-1.24","5wtlaa","Wed Feb 10 2021 08:45:14 GMT+0100 (CET)","2021","2","10","8","45","14","tx12","20","female","right","50","27","0","0","13","","","","","test","happy","happy","h","true"
"null","<div style=""font-size:60px;"">+</div>","null","html-keyboard-response","59","206182","0.0-9.0-0.25","5wtlaa","Wed Feb 10 2021 08:45:14 GMT+0100 (CET)","2021","2","10","8","45","14","tx12","20","female","right","50","27","0","0","13","","","","","fixation","","","",""
"570","img/image_stim_f.png","70","image-keyboard-response","60","206754","0.0-9.0-1.25","5wtlaa","Wed Feb 10 2021 08:45:14 GMT+0100 (CET)","2021","2","10","8","45","14","tx12","20","female","right","50","27","0","0","13","","","","","test","fear","fear","f","true"
"null","<div style=""font-size:60px;"">+</div>","null","html-keyboard-response","61","208507","0.0-9.0-0.26","5wtlaa","Wed Feb 10 2021 08:45:14 GMT+0100 (CET)","2021","2","10","8","45","14","tx12","20","female","right","50","27","0","0","13","","","","","fixation","","","",""
"579","img/image_stim_f_stroop.png","70","image-keyboard-response","62","209089","0.0-9.0-1.26","5wtlaa","Wed Feb 10 2021 08:45:14 GMT+0100 (CET)","2021","2","10","8","45","14","tx12","20","female","right","50","27","0","0","13","","","","","test","fear","happy","f","true"
"null","<div style=""font-size:60px;"">+</div>","null","html-keyboard-response","63","209592","0.0-9.0-0.27","5wtlaa","Wed Feb 10 2021 08:45:14 GMT+0100 (CET)","2021","2","10","8","45","14","tx12","20","female","right","50","27","0","0","13","","","","","fixation","","","",""
"670","img/image_stim_h_stroop.png","72","image-keyboard-response","64","210263","0.0-9.0-1.27","5wtlaa","Wed Feb 10 2021 08:45:14 GMT+0100 (CET)","2021","2","10","8","45","14","tx12","20","female","right","50","27","0","0","13","","","","","test","happy","fear","h","true"
"null","<div style=""font-size:60px;"">+</div>","null","html-keyboard-response","65","210765","0.0-9.0-0.28","5wtlaa","Wed Feb 10 2021 08:45:14 GMT+0100 (CET)","2021","2","10","8","45","14","tx12","20","female","right","50","27","0","0","13","","","","","fixation","","","",""
"793","img/image_stim_f_stroop.png","70","image-keyboard-response","66","211559","0.0-9.0-1.28","5wtlaa","Wed Feb 10 2021 08:45:14 GMT+0100 (CET)","2021","2","10","8","45","14","tx12","20","female","right","50","27","0","0","13","","","","","test","fear","happy","f","true"
"null","<div style=""font-size:60px;"">+</div>","null","html-keyboard-response","67","213061","0.0-9.0-0.29","5wtlaa","Wed Feb 10 2021 08:45:14 GMT+0100 (CET)","2021","2","10","8","45","14","tx12","20","female","right","50","27","0","0","13","","","","","fixation","","","",""
"448","img/image_stim_h_stroop.png","72","image-keyboard-response","68","213511","0.0-9.0-1.29","5wtlaa","Wed Feb 10 2021 08:45:14 GMT+0100 (CET)","2021","2","10","8","45","14","tx12","20","female","right","50","27","0","0","13","","","","","test","happy","fear","h","true"
"null","<div style=""font-size:60px;"">+</div>","null","html-keyboard-response","69","214013","0.0-9.0-0.30","5wtlaa","Wed Feb 10 2021 08:45:14 GMT+0100 (CET)","2021","2","10","8","45","14","tx12","20","female","right","50","27","0","0","13","","","","","fixation","","","",""
"742","img/image_stim_f.png","70","image-keyboard-response","70","214757","0.0-9.0-1.30","5wtlaa","Wed Feb 10 2021 08:45:14 GMT+0100 (CET)","2021","2","10","8","45","14","tx12","20","female","right","50","27","0","0","13","","","","","test","fear","fear","f","true"
"null","<div style=""font-size:60px;"">+</div>","null","html-keyboard-response","71","215009","0.0-9.0-0.31","5wtlaa","Wed Feb 10 2021 08:45:14 GMT+0100 (CET)","2021","2","10","8","45","14","tx12","20","female","right","50","27","0","0","13","","","","","fixation","","","",""
"501","img/image_stim_h.png","72","image-keyboard-response","72","215511","0.0-9.0-1.31","5wtlaa","Wed Feb 10 2021 08:45:14 GMT+0100 (CET)","2021","2","10","8","45","14","tx12","20","female","right","50","27","0","0","13","","","","","test","happy","happy","h","true"
"null","<div style=""font-size:60px;"">+</div>","null","html-keyboard-response","73","217014","0.0-9.0-0.32","5wtlaa","Wed Feb 10 2021 08:45:14 GMT+0100 (CET)","2021","2","10","8","45","14","tx12","20","female","right","50","27","0","0","13","","","","","fixation","","","",""
"780","img/image_stim_f.png","70","image-keyboard-response","74","217796","0.0-9.0-1.32","5wtlaa","Wed Feb 10 2021 08:45:14 GMT+0100 (CET)","2021","2","10","8","45","14","tx12","20","female","right","50","27","0","0","13","","","","","test","fear","fear","f","true"
"null","<div style=""font-size:60px;"">+</div>","null","html-keyboard-response","75","219048","0.0-9.0-0.33","5wtlaa","Wed Feb 10 2021 08:45:14 GMT+0100 (CET)","2021","2","10","8","45","14","tx12","20","female","right","50","27","0","0","13","","","","","fixation","","","",""
"654","img/image_stim_h_stroop.png","72","image-keyboard-response","76","219704","0.0-9.0-1.33","5wtlaa","Wed Feb 10 2021 08:45:14 GMT+0100 (CET)","2021","2","10","8","45","14","tx12","20","female","right","50","27","0","0","13","","","","","test","happy","fear","h","true"
"null","<div style=""font-size:60px;"">+</div>","null","html-keyboard-response","77","219956","0.0-9.0-0.34","5wtlaa","Wed Feb 10 2021 08:45:14 GMT+0100 (CET)","2021","2","10","8","45","14","tx12","20","female","right","50","27","0","0","13","","","","","fixation","","","",""
"717.0000000000291","img/image_stim_h.png","72","image-keyboard-response","78","220675","0.0-9.0-1.34","5wtlaa","Wed Feb 10 2021 08:45:14 GMT+0100 (CET)","2021","2","10","8","45","14","tx12","20","female","right","50","27","0","0","13","","","","","test","happy","happy","h","true"
"null","<div style=""font-size:60px;"">+</div>","null","html-keyboard-response","79","221927","0.0-9.0-0.35","5wtlaa","Wed Feb 10 2021 08:45:14 GMT+0100 (CET)","2021","2","10","8","45","14","tx12","20","female","right","50","27","0","0","13","","","","","fixation","","","",""
"1047","img/image_stim_f_stroop.png","70","image-keyboard-response","80","222975","0.0-9.0-1.35","5wtlaa","Wed Feb 10 2021 08:45:14 GMT+0100 (CET)","2021","2","10","8","45","14","tx12","20","female","right","50","27","0","0","13","","","","","test","fear","happy","f","true"
