"rt","stimulus","key_press","trial_type","trial_index","time_elapsed","internal_node_id","exp_id","Time","year","month","date","hour","minute","seconds","id","age","Gender","Handedness","mood","fresh","hunger","H_since_Sleep","H_since_Eat","responses","question_order","slider_start","response","test_part","face","word","correct_response","correct"
"5798.310000041965","<p>Welcome to this experiment on daily rhythms and cognition.</p><p>First you will be asked some questions about yourself.</p><p>Then a short experiment will measure your response time.</p><p>Take the test at different times of the day/night.</p><p>The test is anonymous, but comparing your data across time is important.</p><p>Therefore, please make up and remember a personal ID (two letters+ two numbers).</p><p>Use this ID whenever taking the test.</p><p><strong>Press any key to begin.</strong></p>","32","html-keyboard-response","0","5800","0.0-0.0","tu178m","Tue Feb 09 2021 02:32:44 GMT+0100 (Central European Standard Time)","2021","2","9","2","32","44","mw73","47","male","right","68","15","56","20","5","","","","","","","","",""
"6712.669999978971","","","survey-text","1","12517","0.0-1.0","tu178m","Tue Feb 09 2021 02:32:44 GMT+0100 (Central European Standard Time)","2021","2","9","2","32","44","mw73","47","male","right","68","15","56","20","5","{""Q0"":""mw73""}","","","","","","","",""
"3181.6450000042096","","","survey-text","2","15701","0.0-2.0","tu178m","Tue Feb 09 2021 02:32:44 GMT+0100 (Central European Standard Time)","2021","2","9","2","32","44","mw73","47","male","right","68","15","56","20","5","{""Q0"":""47""}","","","","","","","",""
"5329.529999988154","","","survey-multi-select","3","21033","0.0-3.0","tu178m","Tue Feb 09 2021 02:32:44 GMT+0100 (Central European Standard Time)","2021","2","9","2","32","44","mw73","47","male","right","68","15","56","20","5","{""Gender"":[""male""],""Hand"":[""right""]}","[0,1]","","","","","","",""
"4831.01500000339","<p>How Sad/Angry or Happy are you right now?</p>","","html-slider-response","4","25866","0.0-4.0","tu178m","Tue Feb 09 2021 02:32:44 GMT+0100 (Central European Standard Time)","2021","2","9","2","32","44","mw73","47","male","right","68","15","56","20","5","","","50","68","","","","",""
"3422.5250000017695","<p>How Tired/Sleepy/Distracted or Fresh/Awake/Alert are you right now?</p>","","html-slider-response","5","29290","0.0-5.0","tu178m","Tue Feb 09 2021 02:32:44 GMT+0100 (Central European Standard Time)","2021","2","9","2","32","44","mw73","47","male","right","68","15","56","20","5","","","50","15","","","","",""
"3287.92999999132","<p>How Hungry or Satiated are you right now?</p>","","html-slider-response","6","32579","0.0-6.0","tu178m","Tue Feb 09 2021 02:32:44 GMT+0100 (Central European Standard Time)","2021","2","9","2","32","44","mw73","47","male","right","68","15","56","20","5","","","50","56","","","","",""
"7680.19500002265","","","survey-multi-select","7","40272","0.0-7.0","tu178m","Tue Feb 09 2021 02:32:44 GMT+0100 (Central European Standard Time)","2021","2","9","2","32","44","mw73","47","male","right","68","15","56","20","5","{""Sleep"":[""20""],""Eat"":[""5""]}","[0,1]","","","","","","",""
"2770.5600000335835","<p>In this experiment, a face and a word will appear in the center of the screen.</p><p>If the face is <strong>happy</strong>, press the letter <strong>H</strong> with <strong>right</strong> index finger.</p><p>If the face is <strong>fearful</strong>, press the letter <strong>F</strong> with <strong>left</strong> index finger.</p><p><strong>Ignore the written words</strong>. Respond as fast as possible while being correct. </p><div style='width: 900px;'><div style='float: left;'><img src='img/stimuli_stroop_happy.png'></img><p class='small'><strong>Press the H key for happy faces</strong></p></div><div class='float: right;'><img src='img/stimuli_stroop_fear.png'></img><p class='small'><strong>Press the F key for faces with fear</strong></p></div></div><p>If the screen turns blank, press <strong>SPACE</strong></p><p><strong>Press any key to begin.</strong></p>","32","html-keyboard-response","8","43044","0.0-8.0","tu178m","Tue Feb 09 2021 02:32:44 GMT+0100 (Central European Standard Time)","2021","2","9","2","32","44","mw73","47","male","right","68","15","56","20","5","","","","","","","","",""
"null","<div style=""font-size:60px;"">+</div>","null","html-keyboard-response","9","46298","0.0-9.0-0.0","tu178m","Tue Feb 09 2021 02:32:44 GMT+0100 (Central European Standard Time)","2021","2","9","2","32","44","mw73","47","male","right","68","15","56","20","5","","","","","fixation","","","",""
"911.13000002224","img/image_stim_f_stroop.png","70","image-keyboard-response","10","47220","0.0-9.0-1.0","tu178m","Tue Feb 09 2021 02:32:44 GMT+0100 (Central European Standard Time)","2021","2","9","2","32","44","mw73","47","male","right","68","15","56","20","5","","","","","test","fear","happy","f","true"
"null","<div style=""font-size:60px;"">+</div>","null","html-keyboard-response","11","48472","0.0-9.0-0.1","tu178m","Tue Feb 09 2021 02:32:44 GMT+0100 (Central European Standard Time)","2021","2","9","2","32","44","mw73","47","male","right","68","15","56","20","5","","","","","fixation","","","",""
"624.6200000168756","img/image_stim_h_stroop.png","72","image-keyboard-response","12","49098","0.0-9.0-1.1","tu178m","Tue Feb 09 2021 02:32:44 GMT+0100 (Central European Standard Time)","2021","2","9","2","32","44","mw73","47","male","right","68","15","56","20","5","","","","","test","happy","fear","h","true"
"null","<div style=""font-size:60px;"">+</div>","null","html-keyboard-response","13","50602","0.0-9.0-0.2","tu178m","Tue Feb 09 2021 02:32:44 GMT+0100 (Central European Standard Time)","2021","2","9","2","32","44","mw73","47","male","right","68","15","56","20","5","","","","","fixation","","","",""
"710.834999976214","img/image_stim_h.png","72","image-keyboard-response","14","51314","0.0-9.0-1.2","tu178m","Tue Feb 09 2021 02:32:44 GMT+0100 (Central European Standard Time)","2021","2","9","2","32","44","mw73","47","male","right","68","15","56","20","5","","","","","test","happy","happy","h","true"
"null","<div style=""font-size:60px;"">+</div>","null","html-keyboard-response","15","52070","0.0-9.0-0.3","tu178m","Tue Feb 09 2021 02:32:44 GMT+0100 (Central European Standard Time)","2021","2","9","2","32","44","mw73","47","male","right","68","15","56","20","5","","","","","fixation","","","",""
"625.0149999978021","img/image_stim_f.png","70","image-keyboard-response","16","52696","0.0-9.0-1.3","tu178m","Tue Feb 09 2021 02:32:44 GMT+0100 (Central European Standard Time)","2021","2","9","2","32","44","mw73","47","male","right","68","15","56","20","5","","","","","test","fear","fear","f","true"
"null","<div style=""font-size:60px;"">+</div>","null","html-keyboard-response","17","53953","0.0-9.0-0.4","tu178m","Tue Feb 09 2021 02:32:44 GMT+0100 (Central European Standard Time)","2021","2","9","2","32","44","mw73","47","male","right","68","15","56","20","5","","","","","fixation","","","",""
"689.1349999932572","img/image_stim_f_stroop.png","70","image-keyboard-response","18","54643","0.0-9.0-1.4","tu178m","Tue Feb 09 2021 02:32:44 GMT+0100 (Central European Standard Time)","2021","2","9","2","32","44","mw73","47","male","right","68","15","56","20","5","","","","","test","fear","happy","f","true"
"null","<div style=""font-size:60px;"">+</div>","null","html-keyboard-response","19","56146","0.0-9.0-0.5","tu178m","Tue Feb 09 2021 02:32:44 GMT+0100 (Central European Standard Time)","2021","2","9","2","32","44","mw73","47","male","right","68","15","56","20","5","","","","","fixation","","","",""
"731.1350000090897","img/image_stim_h_stroop.png","72","image-keyboard-response","20","56878","0.0-9.0-1.5","tu178m","Tue Feb 09 2021 02:32:44 GMT+0100 (Central European Standard Time)","2021","2","9","2","32","44","mw73","47","male","right","68","15","56","20","5","","","","","test","happy","fear","h","true"
"null","<div style=""font-size:60px;"">+</div>","null","html-keyboard-response","21","58131","0.0-9.0-0.6","tu178m","Tue Feb 09 2021 02:32:44 GMT+0100 (Central European Standard Time)","2021","2","9","2","32","44","mw73","47","male","right","68","15","56","20","5","","","","","fixation","","","",""
"679.7400000505149","img/image_stim_f.png","70","image-keyboard-response","22","58813","0.0-9.0-1.6","tu178m","Tue Feb 09 2021 02:32:44 GMT+0100 (Central European Standard Time)","2021","2","9","2","32","44","mw73","47","male","right","68","15","56","20","5","","","","","test","fear","fear","f","true"
"null","<div style=""font-size:60px;"">+</div>","null","html-keyboard-response","23","59820","0.0-9.0-0.7","tu178m","Tue Feb 09 2021 02:32:44 GMT+0100 (Central European Standard Time)","2021","2","9","2","32","44","mw73","47","male","right","68","15","56","20","5","","","","","fixation","","","",""
"648.1349999667145","img/image_stim_h.png","72","image-keyboard-response","24","60469","0.0-9.0-1.7","tu178m","Tue Feb 09 2021 02:32:44 GMT+0100 (Central European Standard Time)","2021","2","9","2","32","44","mw73","47","male","right","68","15","56","20","5","","","","","test","happy","happy","h","true"
"null","<div style=""font-size:60px;"">+</div>","null","html-keyboard-response","25","61471","0.0-9.0-0.8","tu178m","Tue Feb 09 2021 02:32:44 GMT+0100 (Central European Standard Time)","2021","2","9","2","32","44","mw73","47","male","right","68","15","56","20","5","","","","","fixation","","","",""
"678.6100000026636","img/image_stim_f.png","70","image-keyboard-response","26","62151","0.0-9.0-1.8","tu178m","Tue Feb 09 2021 02:32:44 GMT+0100 (Central European Standard Time)","2021","2","9","2","32","44","mw73","47","male","right","68","15","56","20","5","","","","","test","fear","fear","f","true"
"null","<div style=""font-size:60px;"">+</div>","null","html-keyboard-response","27","63402","0.0-9.0-0.9","tu178m","Tue Feb 09 2021 02:32:44 GMT+0100 (Central European Standard Time)","2021","2","9","2","32","44","mw73","47","male","right","68","15","56","20","5","","","","","fixation","","","",""
"610.515000007581","img/image_stim_h.png","72","image-keyboard-response","28","64014","0.0-9.0-1.9","tu178m","Tue Feb 09 2021 02:32:44 GMT+0100 (Central European Standard Time)","2021","2","9","2","32","44","mw73","47","male","right","68","15","56","20","5","","","","","test","happy","happy","h","true"
"null","<div style=""font-size:60px;"">+</div>","null","html-keyboard-response","29","64770","0.0-9.0-0.10","tu178m","Tue Feb 09 2021 02:32:44 GMT+0100 (Central European Standard Time)","2021","2","9","2","32","44","mw73","47","male","right","68","15","56","20","5","","","","","fixation","","","",""
"750.060000049416","img/image_stim_h_stroop.png","72","image-keyboard-response","30","65521","0.0-9.0-1.10","tu178m","Tue Feb 09 2021 02:32:44 GMT+0100 (Central European Standard Time)","2021","2","9","2","32","44","mw73","47","male","right","68","15","56","20","5","","","","","test","happy","fear","h","true"
"null","<div style=""font-size:60px;"">+</div>","null","html-keyboard-response","31","66276","0.0-9.0-0.11","tu178m","Tue Feb 09 2021 02:32:44 GMT+0100 (Central European Standard Time)","2021","2","9","2","32","44","mw73","47","male","right","68","15","56","20","5","","","","","fixation","","","",""
"745.5399999744259","img/image_stim_f_stroop.png","70","image-keyboard-response","32","67023","0.0-9.0-1.11","tu178m","Tue Feb 09 2021 02:32:44 GMT+0100 (Central European Standard Time)","2021","2","9","2","32","44","mw73","47","male","right","68","15","56","20","5","","","","","test","fear","happy","f","true"
"null","<div style=""font-size:60px;"">+</div>","null","html-keyboard-response","33","68026","0.0-9.0-0.12","tu178m","Tue Feb 09 2021 02:32:44 GMT+0100 (Central European Standard Time)","2021","2","9","2","32","44","mw73","47","male","right","68","15","56","20","5","","","","","fixation","","","",""
"535.4350000270642","img/image_stim_h_stroop.png","72","image-keyboard-response","34","68562","0.0-9.0-1.12","tu178m","Tue Feb 09 2021 02:32:44 GMT+0100 (Central European Standard Time)","2021","2","9","2","32","44","mw73","47","male","right","68","15","56","20","5","","","","","test","happy","fear","h","true"
"null","<div style=""font-size:60px;"">+</div>","null","html-keyboard-response","35","69565","0.0-9.0-0.13","tu178m","Tue Feb 09 2021 02:32:44 GMT+0100 (Central European Standard Time)","2021","2","9","2","32","44","mw73","47","male","right","68","15","56","20","5","","","","","fixation","","","",""
"735.27499998454","img/image_stim_f.png","70","image-keyboard-response","36","70301","0.0-9.0-1.13","tu178m","Tue Feb 09 2021 02:32:44 GMT+0100 (Central European Standard Time)","2021","2","9","2","32","44","mw73","47","male","right","68","15","56","20","5","","","","","test","fear","fear","f","true"
"null","<div style=""font-size:60px;"">+</div>","null","html-keyboard-response","37","71553","0.0-9.0-0.14","tu178m","Tue Feb 09 2021 02:32:44 GMT+0100 (Central European Standard Time)","2021","2","9","2","32","44","mw73","47","male","right","68","15","56","20","5","","","","","fixation","","","",""
"695.5350000062026","img/image_stim_f_stroop.png","70","image-keyboard-response","38","72250","0.0-9.0-1.14","tu178m","Tue Feb 09 2021 02:32:44 GMT+0100 (Central European Standard Time)","2021","2","9","2","32","44","mw73","47","male","right","68","15","56","20","5","","","","","test","fear","happy","f","true"
"null","<div style=""font-size:60px;"">+</div>","null","html-keyboard-response","39","72753","0.0-9.0-0.15","tu178m","Tue Feb 09 2021 02:32:44 GMT+0100 (Central European Standard Time)","2021","2","9","2","32","44","mw73","47","male","right","68","15","56","20","5","","","","","fixation","","","",""
"595.8699999609962","img/image_stim_h.png","72","image-keyboard-response","40","73350","0.0-9.0-1.15","tu178m","Tue Feb 09 2021 02:32:44 GMT+0100 (Central European Standard Time)","2021","2","9","2","32","44","mw73","47","male","right","68","15","56","20","5","","","","","test","happy","happy","h","true"
"null","<div style=""font-size:60px;"">+</div>","null","html-keyboard-response","41","74104","0.0-9.0-0.16","tu178m","Tue Feb 09 2021 02:32:44 GMT+0100 (Central European Standard Time)","2021","2","9","2","32","44","mw73","47","male","right","68","15","56","20","5","","","","","fixation","","","",""
"553.1100000371225","img/image_stim_h.png","72","image-keyboard-response","42","74659","0.0-9.0-1.16","tu178m","Tue Feb 09 2021 02:32:44 GMT+0100 (Central European Standard Time)","2021","2","9","2","32","44","mw73","47","male","right","68","15","56","20","5","","","","","test","happy","happy","h","true"
"null","<div style=""font-size:60px;"">+</div>","null","html-keyboard-response","43","76661","0.0-9.0-0.17","tu178m","Tue Feb 09 2021 02:32:44 GMT+0100 (Central European Standard Time)","2021","2","9","2","32","44","mw73","47","male","right","68","15","56","20","5","","","","","fixation","","","",""
"620.130000053905","img/image_stim_h_stroop.png","72","image-keyboard-response","44","77283","0.0-9.0-1.17","tu178m","Tue Feb 09 2021 02:32:44 GMT+0100 (Central European Standard Time)","2021","2","9","2","32","44","mw73","47","male","right","68","15","56","20","5","","","","","test","happy","fear","h","true"
"null","<div style=""font-size:60px;"">+</div>","null","html-keyboard-response","45","78538","0.0-9.0-0.18","tu178m","Tue Feb 09 2021 02:32:44 GMT+0100 (Central European Standard Time)","2021","2","9","2","32","44","mw73","47","male","right","68","15","56","20","5","","","","","fixation","","","",""
"622.5400000112131","img/image_stim_f_stroop.png","70","image-keyboard-response","46","79162","0.0-9.0-1.18","tu178m","Tue Feb 09 2021 02:32:44 GMT+0100 (Central European Standard Time)","2021","2","9","2","32","44","mw73","47","male","right","68","15","56","20","5","","","","","test","fear","happy","f","true"
"null","<div style=""font-size:60px;"">+</div>","null","html-keyboard-response","47","80415","0.0-9.0-0.19","tu178m","Tue Feb 09 2021 02:32:44 GMT+0100 (Central European Standard Time)","2021","2","9","2","32","44","mw73","47","male","right","68","15","56","20","5","","","","","fixation","","","",""
"647.5700000301003","img/image_stim_f.png","70","image-keyboard-response","48","81063","0.0-9.0-1.19","tu178m","Tue Feb 09 2021 02:32:44 GMT+0100 (Central European Standard Time)","2021","2","9","2","32","44","mw73","47","male","right","68","15","56","20","5","","","","","test","fear","fear","f","true"
"null","<div style=""font-size:60px;"">+</div>","null","html-keyboard-response","49","82317","0.0-9.0-0.20","tu178m","Tue Feb 09 2021 02:32:44 GMT+0100 (Central European Standard Time)","2021","2","9","2","32","44","mw73","47","male","right","68","15","56","20","5","","","","","fixation","","","",""
"633.2750000292435","img/image_stim_h_stroop.png","72","image-keyboard-response","50","82951","0.0-9.0-1.20","tu178m","Tue Feb 09 2021 02:32:44 GMT+0100 (Central European Standard Time)","2021","2","9","2","32","44","mw73","47","male","right","68","15","56","20","5","","","","","test","happy","fear","h","true"
"null","<div style=""font-size:60px;"">+</div>","null","html-keyboard-response","51","84954","0.0-9.0-0.21","tu178m","Tue Feb 09 2021 02:32:44 GMT+0100 (Central European Standard Time)","2021","2","9","2","32","44","mw73","47","male","right","68","15","56","20","5","","","","","fixation","","","",""
"638.0149999749847","img/image_stim_f_stroop.png","70","image-keyboard-response","52","85594","0.0-9.0-1.21","tu178m","Tue Feb 09 2021 02:32:44 GMT+0100 (Central European Standard Time)","2021","2","9","2","32","44","mw73","47","male","right","68","15","56","20","5","","","","","test","fear","happy","f","true"
"null","<div style=""font-size:60px;"">+</div>","null","html-keyboard-response","53","87596","0.0-9.0-0.22","tu178m","Tue Feb 09 2021 02:32:44 GMT+0100 (Central European Standard Time)","2021","2","9","2","32","44","mw73","47","male","right","68","15","56","20","5","","","","","fixation","","","",""
"808.0799999879673","img/image_stim_f.png","70","image-keyboard-response","54","88405","0.0-9.0-1.22","tu178m","Tue Feb 09 2021 02:32:44 GMT+0100 (Central European Standard Time)","2021","2","9","2","32","44","mw73","47","male","right","68","15","56","20","5","","","","","test","fear","fear","f","true"
"null","<div style=""font-size:60px;"">+</div>","null","html-keyboard-response","55","89158","0.0-9.0-0.23","tu178m","Tue Feb 09 2021 02:32:44 GMT+0100 (Central European Standard Time)","2021","2","9","2","32","44","mw73","47","male","right","68","15","56","20","5","","","","","fixation","","","",""
"1149.4800000218675","img/image_stim_h.png","72","image-keyboard-response","56","90309","0.0-9.0-1.23","tu178m","Tue Feb 09 2021 02:32:44 GMT+0100 (Central European Standard Time)","2021","2","9","2","32","44","mw73","47","male","right","68","15","56","20","5","","","","","test","happy","happy","h","true"
"null","<div style=""font-size:60px;"">+</div>","null","html-keyboard-response","57","91812","0.0-9.0-0.24","tu178m","Tue Feb 09 2021 02:32:44 GMT+0100 (Central European Standard Time)","2021","2","9","2","32","44","mw73","47","male","right","68","15","56","20","5","","","","","fixation","","","",""
"548.94999996759","img/image_stim_h_stroop.png","72","image-keyboard-response","58","92361","0.0-9.0-1.24","tu178m","Tue Feb 09 2021 02:32:44 GMT+0100 (Central European Standard Time)","2021","2","9","2","32","44","mw73","47","male","right","68","15","56","20","5","","","","","test","happy","fear","h","true"
"null","<div style=""font-size:60px;"">+</div>","null","html-keyboard-response","59","94119","0.0-9.0-0.25","tu178m","Tue Feb 09 2021 02:32:44 GMT+0100 (Central European Standard Time)","2021","2","9","2","32","44","mw73","47","male","right","68","15","56","20","5","","","","","fixation","","","",""
"604.3150000041351","img/image_stim_h.png","72","image-keyboard-response","60","94724","0.0-9.0-1.25","tu178m","Tue Feb 09 2021 02:32:44 GMT+0100 (Central European Standard Time)","2021","2","9","2","32","44","mw73","47","male","right","68","15","56","20","5","","","","","test","happy","happy","h","true"
"null","<div style=""font-size:60px;"">+</div>","null","html-keyboard-response","61","96477","0.0-9.0-0.26","tu178m","Tue Feb 09 2021 02:32:44 GMT+0100 (Central European Standard Time)","2021","2","9","2","32","44","mw73","47","male","right","68","15","56","20","5","","","","","fixation","","","",""
"579.7199999797158","img/image_stim_f_stroop.png","70","image-keyboard-response","62","97058","0.0-9.0-1.26","tu178m","Tue Feb 09 2021 02:32:44 GMT+0100 (Central European Standard Time)","2021","2","9","2","32","44","mw73","47","male","right","68","15","56","20","5","","","","","test","fear","happy","f","true"
"null","<div style=""font-size:60px;"">+</div>","null","html-keyboard-response","63","97811","0.0-9.0-0.27","tu178m","Tue Feb 09 2021 02:32:44 GMT+0100 (Central European Standard Time)","2021","2","9","2","32","44","mw73","47","male","right","68","15","56","20","5","","","","","fixation","","","",""
"847.8749999776483","img/image_stim_f.png","70","image-keyboard-response","64","98659","0.0-9.0-1.27","tu178m","Tue Feb 09 2021 02:32:44 GMT+0100 (Central European Standard Time)","2021","2","9","2","32","44","mw73","47","male","right","68","15","56","20","5","","","","","test","fear","fear","f","true"
"null","<div style=""font-size:60px;"">+</div>","null","html-keyboard-response","65","99915","0.0-9.0-0.28","tu178m","Tue Feb 09 2021 02:32:44 GMT+0100 (Central European Standard Time)","2021","2","9","2","32","44","mw73","47","male","right","68","15","56","20","5","","","","","fixation","","","",""
"948.5749999876134","img/image_stim_f_stroop.png","70","image-keyboard-response","66","100865","0.0-9.0-1.28","tu178m","Tue Feb 09 2021 02:32:44 GMT+0100 (Central European Standard Time)","2021","2","9","2","32","44","mw73","47","male","right","68","15","56","20","5","","","","","test","fear","happy","f","true"
"null","<div style=""font-size:60px;"">+</div>","null","html-keyboard-response","67","102619","0.0-9.0-0.29","tu178m","Tue Feb 09 2021 02:32:44 GMT+0100 (Central European Standard Time)","2021","2","9","2","32","44","mw73","47","male","right","68","15","56","20","5","","","","","fixation","","","",""
"798.0749999987893","img/image_stim_f.png","70","image-keyboard-response","68","103419","0.0-9.0-1.29","tu178m","Tue Feb 09 2021 02:32:44 GMT+0100 (Central European Standard Time)","2021","2","9","2","32","44","mw73","47","male","right","68","15","56","20","5","","","","","test","fear","fear","f","true"
"null","<div style=""font-size:60px;"">+</div>","null","html-keyboard-response","69","104926","0.0-9.0-0.30","tu178m","Tue Feb 09 2021 02:32:44 GMT+0100 (Central European Standard Time)","2021","2","9","2","32","44","mw73","47","male","right","68","15","56","20","5","","","","","fixation","","","",""
"588.8550000381656","img/image_stim_h_stroop.png","72","image-keyboard-response","70","105516","0.0-9.0-1.30","tu178m","Tue Feb 09 2021 02:32:44 GMT+0100 (Central European Standard Time)","2021","2","9","2","32","44","mw73","47","male","right","68","15","56","20","5","","","","","test","happy","fear","h","true"
"null","<div style=""font-size:60px;"">+</div>","null","html-keyboard-response","71","106771","0.0-9.0-0.31","tu178m","Tue Feb 09 2021 02:32:44 GMT+0100 (Central European Standard Time)","2021","2","9","2","32","44","mw73","47","male","right","68","15","56","20","5","","","","","fixation","","","",""
"587.534999998752","img/image_stim_h.png","72","image-keyboard-response","72","107359","0.0-9.0-1.31","tu178m","Tue Feb 09 2021 02:32:44 GMT+0100 (Central European Standard Time)","2021","2","9","2","32","44","mw73","47","male","right","68","15","56","20","5","","","","","test","happy","happy","h","true"
"null","<div style=""font-size:60px;"">+</div>","null","html-keyboard-response","73","108617","0.0-9.0-0.32","tu178m","Tue Feb 09 2021 02:32:44 GMT+0100 (Central European Standard Time)","2021","2","9","2","32","44","mw73","47","male","right","68","15","56","20","5","","","","","fixation","","","",""
"848.1200000387616","img/image_stim_h.png","72","image-keyboard-response","74","109466","0.0-9.0-1.32","tu178m","Tue Feb 09 2021 02:32:44 GMT+0100 (Central European Standard Time)","2021","2","9","2","32","44","mw73","47","male","right","68","15","56","20","5","","","","","test","happy","happy","h","true"
"null","<div style=""font-size:60px;"">+</div>","null","html-keyboard-response","75","109969","0.0-9.0-0.33","tu178m","Tue Feb 09 2021 02:32:44 GMT+0100 (Central European Standard Time)","2021","2","9","2","32","44","mw73","47","male","right","68","15","56","20","5","","","","","fixation","","","",""
"685.4049999965355","img/image_stim_f.png","70","image-keyboard-response","76","110655","0.0-9.0-1.33","tu178m","Tue Feb 09 2021 02:32:44 GMT+0100 (Central European Standard Time)","2021","2","9","2","32","44","mw73","47","male","right","68","15","56","20","5","","","","","test","fear","fear","f","true"
"null","<div style=""font-size:60px;"">+</div>","null","html-keyboard-response","77","111911","0.0-9.0-0.34","tu178m","Tue Feb 09 2021 02:32:44 GMT+0100 (Central European Standard Time)","2021","2","9","2","32","44","mw73","47","male","right","68","15","56","20","5","","","","","fixation","","","",""
"787.2649999917485","img/image_stim_f_stroop.png","70","image-keyboard-response","78","112699","0.0-9.0-1.34","tu178m","Tue Feb 09 2021 02:32:44 GMT+0100 (Central European Standard Time)","2021","2","9","2","32","44","mw73","47","male","right","68","15","56","20","5","","","","","test","fear","happy","f","true"
"null","<div style=""font-size:60px;"">+</div>","null","html-keyboard-response","79","112954","0.0-9.0-0.35","tu178m","Tue Feb 09 2021 02:32:44 GMT+0100 (Central European Standard Time)","2021","2","9","2","32","44","mw73","47","male","right","68","15","56","20","5","","","","","fixation","","","",""
"784.2749999836087","img/image_stim_h_stroop.png","72","image-keyboard-response","80","113739","0.0-9.0-1.35","tu178m","Tue Feb 09 2021 02:32:44 GMT+0100 (Central European Standard Time)","2021","2","9","2","32","44","mw73","47","male","right","68","15","56","20","5","","","","","test","happy","fear","h","true"
