"rt","stimulus","key_press","trial_type","trial_index","time_elapsed","internal_node_id","exp_id","Time","year","month","date","hour","minute","seconds","id","age","Gender","Handedness","mood","fresh","hunger","H_since_Sleep","H_since_Eat","responses","question_order","slider_start","response","test_part","face","word","correct_response","correct"
"1357.1649999939837","<p>Welcome to this experiment on daily rhythms and cognition.</p><p>First you will be asked some questions about yourself.</p><p>Then a short experiment will measure your response time.</p><p>Take the test at different times of the day/night.</p><p>The test is anonymous, but comparing your data across time is important.</p><p>Therefore, please make up and remember a personal ID (two letters+ two numbers).</p><p>Use this ID whenever taking the test.</p><p><strong>Press any key to begin.</strong></p>","32","html-keyboard-response","0","1359","0.0-0.0","4rd696","Mon Feb 08 2021 07:58:20 GMT+0100 (Central European Standard Time)","2021","2","8","7","58","20","mw73","47","male","right","77","88","93","1","0","","","","","","","","",""
"5819.215000024997","","","survey-text","1","7192","0.0-1.0","4rd696","Mon Feb 08 2021 07:58:20 GMT+0100 (Central European Standard Time)","2021","2","8","7","58","20","mw73","47","male","right","77","88","93","1","0","{""Q0"":""mw73""}","","","","","","","",""
"2712.7399999881163","","","survey-text","2","9906","0.0-2.0","4rd696","Mon Feb 08 2021 07:58:20 GMT+0100 (Central European Standard Time)","2021","2","8","7","58","20","mw73","47","male","right","77","88","93","1","0","{""Q0"":""47""}","","","","","","","",""
"3297.9749999940395","","","survey-multi-select","3","13206","0.0-3.0","4rd696","Mon Feb 08 2021 07:58:20 GMT+0100 (Central European Standard Time)","2021","2","8","7","58","20","mw73","47","male","right","77","88","93","1","0","{""Gender"":[""male""],""Hand"":[""right""]}","[0,1]","","","","","","",""
"3741.87000002712","<p>How Sad/Angry or Happy are you right now?</p>","","html-slider-response","4","16950","0.0-4.0","4rd696","Mon Feb 08 2021 07:58:20 GMT+0100 (Central European Standard Time)","2021","2","8","7","58","20","mw73","47","male","right","77","88","93","1","0","","","50","77","","","","",""
"4760.609999997541","<p>How Tired/Sleepy/Distracted or Fresh/Awake/Alert are you right now?</p>","","html-slider-response","5","21711","0.0-5.0","4rd696","Mon Feb 08 2021 07:58:20 GMT+0100 (Central European Standard Time)","2021","2","8","7","58","20","mw73","47","male","right","77","88","93","1","0","","","50","88","","","","",""
"4539.210000017192","<p>How Hungry or Satiated are you right now?</p>","","html-slider-response","6","26252","0.0-6.0","4rd696","Mon Feb 08 2021 07:58:20 GMT+0100 (Central European Standard Time)","2021","2","8","7","58","20","mw73","47","male","right","77","88","93","1","0","","","50","93","","","","",""
"9333.174999977928","","","survey-multi-select","7","35599","0.0-7.0","4rd696","Mon Feb 08 2021 07:58:20 GMT+0100 (Central European Standard Time)","2021","2","8","7","58","20","mw73","47","male","right","77","88","93","1","0","{""Sleep"":[""1""],""Eat"":[""0""]}","[0,1]","","","","","","",""
"2994.6149999741465","<p>In this experiment, a face and a word will appear in the center of the screen.</p><p>If the face is <strong>happy</strong>, press the letter <strong>H</strong> with <strong>right</strong> index finger.</p><p>If the face is <strong>fearful</strong>, press the letter <strong>F</strong> with <strong>left</strong> index finger.</p><p><strong>Ignore the written words</strong>. Respond as fast as possible while being correct. </p><div style='width: 900px;'><div style='float: left;'><img src='img/stimuli_stroop_happy.png'></img><p class='small'><strong>Press the H key for happy faces</strong></p></div><div class='float: right;'><img src='img/stimuli_stroop_fear.png'></img><p class='small'><strong>Press the F key for faces with fear</strong></p></div></div><p>If the screen turns blank, press <strong>SPACE</strong></p><p><strong>Press any key to begin.</strong></p>","32","html-keyboard-response","8","38595","0.0-8.0","4rd696","Mon Feb 08 2021 07:58:20 GMT+0100 (Central European Standard Time)","2021","2","8","7","58","20","mw73","47","male","right","77","88","93","1","0","","","","","","","","",""
"null","<div style=""font-size:60px;"">+</div>","null","html-keyboard-response","9","41851","0.0-9.0-0.0","4rd696","Mon Feb 08 2021 07:58:20 GMT+0100 (Central European Standard Time)","2021","2","8","7","58","20","mw73","47","male","right","77","88","93","1","0","","","","","fixation","","","",""
"198.11999995727092","img/image_stim_h.png","32","image-keyboard-response","10","42056","0.0-9.0-1.0","4rd696","Mon Feb 08 2021 07:58:20 GMT+0100 (Central European Standard Time)","2021","2","8","7","58","20","mw73","47","male","right","77","88","93","1","0","","","","","test","happy","happy","h","false"
"null","<div style=""font-size:60px;"">+</div>","null","html-keyboard-response","11","44065","0.0-9.0-0.1","4rd696","Mon Feb 08 2021 07:58:20 GMT+0100 (Central European Standard Time)","2021","2","8","7","58","20","mw73","47","male","right","77","88","93","1","0","","","","","fixation","","","",""
"331.76000003004447","img/image_stim_h_stroop.png","32","image-keyboard-response","12","44397","0.0-9.0-1.1","4rd696","Mon Feb 08 2021 07:58:20 GMT+0100 (Central European Standard Time)","2021","2","8","7","58","20","mw73","47","male","right","77","88","93","1","0","","","","","test","happy","fear","h","false"
"null","<div style=""font-size:60px;"">+</div>","null","html-keyboard-response","13","45899","0.0-9.0-0.2","4rd696","Mon Feb 08 2021 07:58:20 GMT+0100 (Central European Standard Time)","2021","2","8","7","58","20","mw73","47","male","right","77","88","93","1","0","","","","","fixation","","","",""
"342.01500000199303","img/image_stim_f_stroop.png","32","image-keyboard-response","14","46242","0.0-9.0-1.2","4rd696","Mon Feb 08 2021 07:58:20 GMT+0100 (Central European Standard Time)","2021","2","8","7","58","20","mw73","47","male","right","77","88","93","1","0","","","","","test","fear","happy","f","false"
"null","<div style=""font-size:60px;"">+</div>","null","html-keyboard-response","15","48247","0.0-9.0-0.3","4rd696","Mon Feb 08 2021 07:58:20 GMT+0100 (Central European Standard Time)","2021","2","8","7","58","20","mw73","47","male","right","77","88","93","1","0","","","","","fixation","","","",""
"1707.8099999926053","img/image_stim_f.png","32","image-keyboard-response","16","49956","0.0-9.0-1.3","4rd696","Mon Feb 08 2021 07:58:20 GMT+0100 (Central European Standard Time)","2021","2","8","7","58","20","mw73","47","male","right","77","88","93","1","0","","","","","test","fear","fear","f","false"
"null","<div style=""font-size:60px;"">+</div>","null","html-keyboard-response","17","51461","0.0-9.0-0.4","4rd696","Mon Feb 08 2021 07:58:20 GMT+0100 (Central European Standard Time)","2021","2","8","7","58","20","mw73","47","male","right","77","88","93","1","0","","","","","fixation","","","",""
"754.8950000200421","img/image_stim_f.png","70","image-keyboard-response","18","52220","0.0-9.0-1.4","4rd696","Mon Feb 08 2021 07:58:20 GMT+0100 (Central European Standard Time)","2021","2","8","7","58","20","mw73","47","male","right","77","88","93","1","0","","","","","test","fear","fear","f","true"
"null","<div style=""font-size:60px;"">+</div>","null","html-keyboard-response","19","53225","0.0-9.0-0.5","4rd696","Mon Feb 08 2021 07:58:20 GMT+0100 (Central European Standard Time)","2021","2","8","7","58","20","mw73","47","male","right","77","88","93","1","0","","","","","fixation","","","",""
"592.015000001993","img/image_stim_h.png","72","image-keyboard-response","20","53818","0.0-9.0-1.5","4rd696","Mon Feb 08 2021 07:58:20 GMT+0100 (Central European Standard Time)","2021","2","8","7","58","20","mw73","47","male","right","77","88","93","1","0","","","","","test","happy","happy","h","true"
"null","<div style=""font-size:60px;"">+</div>","null","html-keyboard-response","21","55571","0.0-9.0-0.6","4rd696","Mon Feb 08 2021 07:58:20 GMT+0100 (Central European Standard Time)","2021","2","8","7","58","20","mw73","47","male","right","77","88","93","1","0","","","","","fixation","","","",""
"652.9749999754131","img/image_stim_f_stroop.png","70","image-keyboard-response","22","56225","0.0-9.0-1.6","4rd696","Mon Feb 08 2021 07:58:20 GMT+0100 (Central European Standard Time)","2021","2","8","7","58","20","mw73","47","male","right","77","88","93","1","0","","","","","test","fear","happy","f","true"
"null","<div style=""font-size:60px;"">+</div>","null","html-keyboard-response","23","58231","0.0-9.0-0.7","4rd696","Mon Feb 08 2021 07:58:20 GMT+0100 (Central European Standard Time)","2021","2","8","7","58","20","mw73","47","male","right","77","88","93","1","0","","","","","fixation","","","",""
"685.3950000368059","img/image_stim_h_stroop.png","72","image-keyboard-response","24","58917","0.0-9.0-1.7","4rd696","Mon Feb 08 2021 07:58:20 GMT+0100 (Central European Standard Time)","2021","2","8","7","58","20","mw73","47","male","right","77","88","93","1","0","","","","","test","happy","fear","h","true"
"null","<div style=""font-size:60px;"">+</div>","null","html-keyboard-response","25","60419","0.0-9.0-0.8","4rd696","Mon Feb 08 2021 07:58:20 GMT+0100 (Central European Standard Time)","2021","2","8","7","58","20","mw73","47","male","right","77","88","93","1","0","","","","","fixation","","","",""
"541.9349999865517","img/image_stim_f_stroop.png","70","image-keyboard-response","26","60962","0.0-9.0-1.8","4rd696","Mon Feb 08 2021 07:58:20 GMT+0100 (Central European Standard Time)","2021","2","8","7","58","20","mw73","47","male","right","77","88","93","1","0","","","","","test","fear","happy","f","true"
"null","<div style=""font-size:60px;"">+</div>","null","html-keyboard-response","27","62970","0.0-9.0-0.9","4rd696","Mon Feb 08 2021 07:58:20 GMT+0100 (Central European Standard Time)","2021","2","8","7","58","20","mw73","47","male","right","77","88","93","1","0","","","","","fixation","","","",""
"616.344999987632","img/image_stim_h.png","72","image-keyboard-response","28","63588","0.0-9.0-1.9","4rd696","Mon Feb 08 2021 07:58:20 GMT+0100 (Central European Standard Time)","2021","2","8","7","58","20","mw73","47","male","right","77","88","93","1","0","","","","","test","happy","happy","h","true"
"null","<div style=""font-size:60px;"">+</div>","null","html-keyboard-response","29","63847","0.0-9.0-0.10","4rd696","Mon Feb 08 2021 07:58:20 GMT+0100 (Central European Standard Time)","2021","2","8","7","58","20","mw73","47","male","right","77","88","93","1","0","","","","","fixation","","","",""
"610.080000013113","img/image_stim_f.png","70","image-keyboard-response","30","64459","0.0-9.0-1.10","4rd696","Mon Feb 08 2021 07:58:20 GMT+0100 (Central European Standard Time)","2021","2","8","7","58","20","mw73","47","male","right","77","88","93","1","0","","","","","test","fear","fear","f","true"
"null","<div style=""font-size:60px;"">+</div>","null","html-keyboard-response","31","66214","0.0-9.0-0.11","4rd696","Mon Feb 08 2021 07:58:20 GMT+0100 (Central European Standard Time)","2021","2","8","7","58","20","mw73","47","male","right","77","88","93","1","0","","","","","fixation","","","",""
"557.5900000403635","img/image_stim_h_stroop.png","72","image-keyboard-response","32","66773","0.0-9.0-1.11","4rd696","Mon Feb 08 2021 07:58:20 GMT+0100 (Central European Standard Time)","2021","2","8","7","58","20","mw73","47","male","right","77","88","93","1","0","","","","","test","happy","fear","h","true"
"null","<div style=""font-size:60px;"">+</div>","null","html-keyboard-response","33","67027","0.0-9.0-0.12","4rd696","Mon Feb 08 2021 07:58:20 GMT+0100 (Central European Standard Time)","2021","2","8","7","58","20","mw73","47","male","right","77","88","93","1","0","","","","","fixation","","","",""
"738.710000005085","img/image_stim_h.png","72","image-keyboard-response","34","67767","0.0-9.0-1.12","4rd696","Mon Feb 08 2021 07:58:20 GMT+0100 (Central European Standard Time)","2021","2","8","7","58","20","mw73","47","male","right","77","88","93","1","0","","","","","test","happy","happy","h","true"
"null","<div style=""font-size:60px;"">+</div>","null","html-keyboard-response","35","69519","0.0-9.0-0.13","4rd696","Mon Feb 08 2021 07:58:20 GMT+0100 (Central European Standard Time)","2021","2","8","7","58","20","mw73","47","male","right","77","88","93","1","0","","","","","fixation","","","",""
"613.2700000307523","img/image_stim_f.png","70","image-keyboard-response","36","70133","0.0-9.0-1.13","4rd696","Mon Feb 08 2021 07:58:20 GMT+0100 (Central European Standard Time)","2021","2","8","7","58","20","mw73","47","male","right","77","88","93","1","0","","","","","test","fear","fear","f","true"
"null","<div style=""font-size:60px;"">+</div>","null","html-keyboard-response","37","70889","0.0-9.0-0.14","4rd696","Mon Feb 08 2021 07:58:20 GMT+0100 (Central European Standard Time)","2021","2","8","7","58","20","mw73","47","male","right","77","88","93","1","0","","","","","fixation","","","",""
"1287.2600000118837","img/image_stim_f_stroop.png","70","image-keyboard-response","38","72177","0.0-9.0-1.14","4rd696","Mon Feb 08 2021 07:58:20 GMT+0100 (Central European Standard Time)","2021","2","8","7","58","20","mw73","47","male","right","77","88","93","1","0","","","","","test","fear","happy","f","true"
"null","<div style=""font-size:60px;"">+</div>","null","html-keyboard-response","39","74183","0.0-9.0-0.15","4rd696","Mon Feb 08 2021 07:58:20 GMT+0100 (Central European Standard Time)","2021","2","8","7","58","20","mw73","47","male","right","77","88","93","1","0","","","","","fixation","","","",""
"589.6250000223517","img/image_stim_h_stroop.png","72","image-keyboard-response","40","74773","0.0-9.0-1.15","4rd696","Mon Feb 08 2021 07:58:20 GMT+0100 (Central European Standard Time)","2021","2","8","7","58","20","mw73","47","male","right","77","88","93","1","0","","","","","test","happy","fear","h","true"
"null","<div style=""font-size:60px;"">+</div>","null","html-keyboard-response","41","75277","0.0-9.0-0.16","4rd696","Mon Feb 08 2021 07:58:20 GMT+0100 (Central European Standard Time)","2021","2","8","7","58","20","mw73","47","male","right","77","88","93","1","0","","","","","fixation","","","",""
"686.9900000165217","img/image_stim_f_stroop.png","70","image-keyboard-response","42","75965","0.0-9.0-1.16","4rd696","Mon Feb 08 2021 07:58:20 GMT+0100 (Central European Standard Time)","2021","2","8","7","58","20","mw73","47","male","right","77","88","93","1","0","","","","","test","fear","happy","f","true"
"null","<div style=""font-size:60px;"">+</div>","null","html-keyboard-response","43","76970","0.0-9.0-0.17","4rd696","Mon Feb 08 2021 07:58:20 GMT+0100 (Central European Standard Time)","2021","2","8","7","58","20","mw73","47","male","right","77","88","93","1","0","","","","","fixation","","","",""
"544.0500000258908","img/image_stim_h_stroop.png","72","image-keyboard-response","44","77516","0.0-9.0-1.17","4rd696","Mon Feb 08 2021 07:58:20 GMT+0100 (Central European Standard Time)","2021","2","8","7","58","20","mw73","47","male","right","77","88","93","1","0","","","","","test","happy","fear","h","true"
"null","<div style=""font-size:60px;"">+</div>","null","html-keyboard-response","45","78772","0.0-9.0-0.18","4rd696","Mon Feb 08 2021 07:58:20 GMT+0100 (Central European Standard Time)","2021","2","8","7","58","20","mw73","47","male","right","77","88","93","1","0","","","","","fixation","","","",""
"556.9499999983236","img/image_stim_h.png","72","image-keyboard-response","46","79330","0.0-9.0-1.18","4rd696","Mon Feb 08 2021 07:58:20 GMT+0100 (Central European Standard Time)","2021","2","8","7","58","20","mw73","47","male","right","77","88","93","1","0","","","","","test","happy","happy","h","true"
"null","<div style=""font-size:60px;"">+</div>","null","html-keyboard-response","47","81087","0.0-9.0-0.19","4rd696","Mon Feb 08 2021 07:58:20 GMT+0100 (Central European Standard Time)","2021","2","8","7","58","20","mw73","47","male","right","77","88","93","1","0","","","","","fixation","","","",""
"590.04499996081","img/image_stim_f.png","70","image-keyboard-response","48","81678","0.0-9.0-1.19","4rd696","Mon Feb 08 2021 07:58:20 GMT+0100 (Central European Standard Time)","2021","2","8","7","58","20","mw73","47","male","right","77","88","93","1","0","","","","","test","fear","fear","f","true"
"null","<div style=""font-size:60px;"">+</div>","null","html-keyboard-response","49","83431","0.0-9.0-0.20","4rd696","Mon Feb 08 2021 07:58:20 GMT+0100 (Central European Standard Time)","2021","2","8","7","58","20","mw73","47","male","right","77","88","93","1","0","","","","","fixation","","","",""
"667.0699999667704","img/image_stim_h.png","72","image-keyboard-response","50","84100","0.0-9.0-1.20","4rd696","Mon Feb 08 2021 07:58:20 GMT+0100 (Central European Standard Time)","2021","2","8","7","58","20","mw73","47","male","right","77","88","93","1","0","","","","","test","happy","happy","h","true"
"null","<div style=""font-size:60px;"">+</div>","null","html-keyboard-response","51","86104","0.0-9.0-0.21","4rd696","Mon Feb 08 2021 07:58:20 GMT+0100 (Central European Standard Time)","2021","2","8","7","58","20","mw73","47","male","right","77","88","93","1","0","","","","","fixation","","","",""
"644.5999999996275","img/image_stim_f_stroop.png","70","image-keyboard-response","52","86750","0.0-9.0-1.21","4rd696","Mon Feb 08 2021 07:58:20 GMT+0100 (Central European Standard Time)","2021","2","8","7","58","20","mw73","47","male","right","77","88","93","1","0","","","","","test","fear","happy","f","true"
"null","<div style=""font-size:60px;"">+</div>","null","html-keyboard-response","53","87011","0.0-9.0-0.22","4rd696","Mon Feb 08 2021 07:58:20 GMT+0100 (Central European Standard Time)","2021","2","8","7","58","20","mw73","47","male","right","77","88","93","1","0","","","","","fixation","","","",""
"755.7699999888428","img/image_stim_f.png","70","image-keyboard-response","54","87768","0.0-9.0-1.22","4rd696","Mon Feb 08 2021 07:58:20 GMT+0100 (Central European Standard Time)","2021","2","8","7","58","20","mw73","47","male","right","77","88","93","1","0","","","","","test","fear","fear","f","true"
"null","<div style=""font-size:60px;"">+</div>","null","html-keyboard-response","55","89274","0.0-9.0-0.23","4rd696","Mon Feb 08 2021 07:58:20 GMT+0100 (Central European Standard Time)","2021","2","8","7","58","20","mw73","47","male","right","77","88","93","1","0","","","","","fixation","","","",""
"551.0699999867938","img/image_stim_h_stroop.png","72","image-keyboard-response","56","89826","0.0-9.0-1.23","4rd696","Mon Feb 08 2021 07:58:20 GMT+0100 (Central European Standard Time)","2021","2","8","7","58","20","mw73","47","male","right","77","88","93","1","0","","","","","test","happy","fear","h","true"
"null","<div style=""font-size:60px;"">+</div>","null","html-keyboard-response","57","90331","0.0-9.0-0.24","4rd696","Mon Feb 08 2021 07:58:20 GMT+0100 (Central European Standard Time)","2021","2","8","7","58","20","mw73","47","male","right","77","88","93","1","0","","","","","fixation","","","",""
"672.8349999757484","img/image_stim_f.png","70","image-keyboard-response","58","91005","0.0-9.0-1.24","4rd696","Mon Feb 08 2021 07:58:20 GMT+0100 (Central European Standard Time)","2021","2","8","7","58","20","mw73","47","male","right","77","88","93","1","0","","","","","test","fear","fear","f","true"
"null","<div style=""font-size:60px;"">+</div>","null","html-keyboard-response","59","91509","0.0-9.0-0.25","4rd696","Mon Feb 08 2021 07:58:20 GMT+0100 (Central European Standard Time)","2021","2","8","7","58","20","mw73","47","male","right","77","88","93","1","0","","","","","fixation","","","",""
"602.8400000068359","img/image_stim_h_stroop.png","72","image-keyboard-response","60","92115","0.0-9.0-1.25","4rd696","Mon Feb 08 2021 07:58:20 GMT+0100 (Central European Standard Time)","2021","2","8","7","58","20","mw73","47","male","right","77","88","93","1","0","","","","","test","happy","fear","h","true"
"null","<div style=""font-size:60px;"">+</div>","null","html-keyboard-response","61","92619","0.0-9.0-0.26","4rd696","Mon Feb 08 2021 07:58:20 GMT+0100 (Central European Standard Time)","2021","2","8","7","58","20","mw73","47","male","right","77","88","93","1","0","","","","","fixation","","","",""
"624.9899999820627","img/image_stim_h.png","72","image-keyboard-response","62","93245","0.0-9.0-1.26","4rd696","Mon Feb 08 2021 07:58:20 GMT+0100 (Central European Standard Time)","2021","2","8","7","58","20","mw73","47","male","right","77","88","93","1","0","","","","","test","happy","happy","h","true"
"null","<div style=""font-size:60px;"">+</div>","null","html-keyboard-response","63","95255","0.0-9.0-0.27","4rd696","Mon Feb 08 2021 07:58:20 GMT+0100 (Central European Standard Time)","2021","2","8","7","58","20","mw73","47","male","right","77","88","93","1","0","","","","","fixation","","","",""
"650.46999999322","img/image_stim_f_stroop.png","70","image-keyboard-response","64","95907","0.0-9.0-1.27","4rd696","Mon Feb 08 2021 07:58:20 GMT+0100 (Central European Standard Time)","2021","2","8","7","58","20","mw73","47","male","right","77","88","93","1","0","","","","","test","fear","happy","f","true"
"null","<div style=""font-size:60px;"">+</div>","null","html-keyboard-response","65","96160","0.0-9.0-0.28","4rd696","Mon Feb 08 2021 07:58:20 GMT+0100 (Central European Standard Time)","2021","2","8","7","58","20","mw73","47","male","right","77","88","93","1","0","","","","","fixation","","","",""
"773.8050000043586","img/image_stim_h_stroop.png","72","image-keyboard-response","66","96935","0.0-9.0-1.28","4rd696","Mon Feb 08 2021 07:58:20 GMT+0100 (Central European Standard Time)","2021","2","8","7","58","20","mw73","47","male","right","77","88","93","1","0","","","","","test","happy","fear","h","true"
"null","<div style=""font-size:60px;"">+</div>","null","html-keyboard-response","67","98191","0.0-9.0-0.29","4rd696","Mon Feb 08 2021 07:58:20 GMT+0100 (Central European Standard Time)","2021","2","8","7","58","20","mw73","47","male","right","77","88","93","1","0","","","","","fixation","","","",""
"743.7800000188872","img/image_stim_f_stroop.png","70","image-keyboard-response","68","98936","0.0-9.0-1.29","4rd696","Mon Feb 08 2021 07:58:20 GMT+0100 (Central European Standard Time)","2021","2","8","7","58","20","mw73","47","male","right","77","88","93","1","0","","","","","test","fear","happy","f","true"
"null","<div style=""font-size:60px;"">+</div>","null","html-keyboard-response","69","100695","0.0-9.0-0.30","4rd696","Mon Feb 08 2021 07:58:20 GMT+0100 (Central European Standard Time)","2021","2","8","7","58","20","mw73","47","male","right","77","88","93","1","0","","","","","fixation","","","",""
"750.3449999494478","img/image_stim_f.png","70","image-keyboard-response","70","101446","0.0-9.0-1.30","4rd696","Mon Feb 08 2021 07:58:20 GMT+0100 (Central European Standard Time)","2021","2","8","7","58","20","mw73","47","male","right","77","88","93","1","0","","","","","test","fear","fear","f","true"
"null","<div style=""font-size:60px;"">+</div>","null","html-keyboard-response","71","102950","0.0-9.0-0.31","4rd696","Mon Feb 08 2021 07:58:20 GMT+0100 (Central European Standard Time)","2021","2","8","7","58","20","mw73","47","male","right","77","88","93","1","0","","","","","fixation","","","",""
"643.114999984391","img/image_stim_h.png","72","image-keyboard-response","72","103594","0.0-9.0-1.31","4rd696","Mon Feb 08 2021 07:58:20 GMT+0100 (Central European Standard Time)","2021","2","8","7","58","20","mw73","47","male","right","77","88","93","1","0","","","","","test","happy","happy","h","true"
"null","<div style=""font-size:60px;"">+</div>","null","html-keyboard-response","73","104847","0.0-9.0-0.32","4rd696","Mon Feb 08 2021 07:58:20 GMT+0100 (Central European Standard Time)","2021","2","8","7","58","20","mw73","47","male","right","77","88","93","1","0","","","","","fixation","","","",""
"634.5900000305846","img/image_stim_h.png","72","image-keyboard-response","74","105482","0.0-9.0-1.32","4rd696","Mon Feb 08 2021 07:58:20 GMT+0100 (Central European Standard Time)","2021","2","8","7","58","20","mw73","47","male","right","77","88","93","1","0","","","","","test","happy","happy","h","true"
"null","<div style=""font-size:60px;"">+</div>","null","html-keyboard-response","75","106237","0.0-9.0-0.33","4rd696","Mon Feb 08 2021 07:58:20 GMT+0100 (Central European Standard Time)","2021","2","8","7","58","20","mw73","47","male","right","77","88","93","1","0","","","","","fixation","","","",""
"827.0899999770336","img/image_stim_h_stroop.png","72","image-keyboard-response","76","107065","0.0-9.0-1.33","4rd696","Mon Feb 08 2021 07:58:20 GMT+0100 (Central European Standard Time)","2021","2","8","7","58","20","mw73","47","male","right","77","88","93","1","0","","","","","test","happy","fear","h","true"
"null","<div style=""font-size:60px;"">+</div>","null","html-keyboard-response","77","107822","0.0-9.0-0.34","4rd696","Mon Feb 08 2021 07:58:20 GMT+0100 (Central European Standard Time)","2021","2","8","7","58","20","mw73","47","male","right","77","88","93","1","0","","","","","fixation","","","",""
"665.3749999823049","img/image_stim_f_stroop.png","70","image-keyboard-response","78","108489","0.0-9.0-1.34","4rd696","Mon Feb 08 2021 07:58:20 GMT+0100 (Central European Standard Time)","2021","2","8","7","58","20","mw73","47","male","right","77","88","93","1","0","","","","","test","fear","happy","f","true"
"null","<div style=""font-size:60px;"">+</div>","null","html-keyboard-response","79","108991","0.0-9.0-0.35","4rd696","Mon Feb 08 2021 07:58:20 GMT+0100 (Central European Standard Time)","2021","2","8","7","58","20","mw73","47","male","right","77","88","93","1","0","","","","","fixation","","","",""
"755.2149999537505","img/image_stim_f.png","70","image-keyboard-response","80","109747","0.0-9.0-1.35","4rd696","Mon Feb 08 2021 07:58:20 GMT+0100 (Central European Standard Time)","2021","2","8","7","58","20","mw73","47","male","right","77","88","93","1","0","","","","","test","fear","fear","f","true"
