"rt","stimulus","key_press","trial_type","trial_index","time_elapsed","internal_node_id","exp_id","Time","year","month","date","hour","minute","seconds","id","age","Gender","Handedness","mood","fresh","hunger","H_since_Sleep","H_since_Eat","responses","question_order","slider_start","response","test_part","face","word","correct_response","correct"
"37777.17500000017","<p>Welcome to this experiment on daily rhythms and cognition.</p><p>First you will be asked some questions about yourself.</p><p>Then a short experiment will measure your response time.</p><p>Take the test at different times of the day/night.</p><p>The test is anonymous, but comparing your data across time is important.</p><p>Therefore, please make up and remember a personal ID (two letters+ two numbers).</p><p>Use this ID whenever taking the test.</p><p><strong>Press any key to begin.</strong></p>","72","html-keyboard-response","0","37781","0.0-0.0","4506xq","Tue Feb 16 2021 19:04:09 GMT+0100 (Centraleuropæisk normaltid)","2021","2","16","19","4","9","uc11","21","male","right","67","74","97","11","0","","","","","","","","",""
"5039.324999999735","","","survey-text","1","42835","0.0-1.0","4506xq","Tue Feb 16 2021 19:04:09 GMT+0100 (Centraleuropæisk normaltid)","2021","2","16","19","4","9","uc11","21","male","right","67","74","97","11","0","{""Q0"":""uc11""}","","","","","","","",""
"2749.1799999997966","","","survey-text","2","45587","0.0-2.0","4506xq","Tue Feb 16 2021 19:04:09 GMT+0100 (Centraleuropæisk normaltid)","2021","2","16","19","4","9","uc11","21","male","right","67","74","97","11","0","{""Q0"":""21""}","","","","","","","",""
"4327.615000000151","","","survey-multi-select","3","49917","0.0-3.0","4506xq","Tue Feb 16 2021 19:04:09 GMT+0100 (Centraleuropæisk normaltid)","2021","2","16","19","4","9","uc11","21","male","right","67","74","97","11","0","{""Gender"":[""male""],""Hand"":[""right""]}","[0,1]","","","","","","",""
"31740.01000000044","<p>How Sad/Angry or Happy are you right now?</p>","","html-slider-response","4","81659","0.0-4.0","4506xq","Tue Feb 16 2021 19:04:09 GMT+0100 (Centraleuropæisk normaltid)","2021","2","16","19","4","9","uc11","21","male","right","67","74","97","11","0","","","50","67","","","","",""
"20740.284999999858","<p>How Tired/Sleepy/Distracted or Fresh/Awake/Alert are you right now?</p>","","html-slider-response","5","102401","0.0-5.0","4506xq","Tue Feb 16 2021 19:04:09 GMT+0100 (Centraleuropæisk normaltid)","2021","2","16","19","4","9","uc11","21","male","right","67","74","97","11","0","","","50","74","","","","",""
"7190.549999999348","<p>How Hungry or Satiated are you right now?</p>","","html-slider-response","6","109592","0.0-6.0","4506xq","Tue Feb 16 2021 19:04:09 GMT+0100 (Centraleuropæisk normaltid)","2021","2","16","19","4","9","uc11","21","male","right","67","74","97","11","0","","","50","97","","","","",""
"138690.17499999973","","","survey-multi-select","7","248295","0.0-7.0","4506xq","Tue Feb 16 2021 19:04:09 GMT+0100 (Centraleuropæisk normaltid)","2021","2","16","19","4","9","uc11","21","male","right","67","74","97","11","0","{""Sleep"":[""11""],""Eat"":[""0""]}","[0,1]","","","","","","",""
"3726.785000000731","<p>In this experiment, a face and a word will appear in the center of the screen.</p><p>If the face is <strong>happy</strong>, press the letter <strong>H</strong> with <strong>right</strong> index finger.</p><p>If the face is <strong>fearful</strong>, press the letter <strong>F</strong> with <strong>left</strong> index finger.</p><p><strong>Ignore the written words</strong>. Respond as fast as possible while being correct. </p><div style='width: 900px;'><div style='float: left;'><img src='img/stimuli_stroop_happy.png'></img><p class='small'><strong>Press the H key for happy faces</strong></p></div><div class='float: right;'><img src='img/stimuli_stroop_fear.png'></img><p class='small'><strong>Press the F key for faces with fear</strong></p></div></div><p>If the screen turns blank, press <strong>SPACE</strong></p><p><strong>Press any key to begin.</strong></p>","72","html-keyboard-response","8","252024","0.0-8.0","4506xq","Tue Feb 16 2021 19:04:09 GMT+0100 (Centraleuropæisk normaltid)","2021","2","16","19","4","9","uc11","21","male","right","67","74","97","11","0","","","","","","","","",""
"null","<div style=""font-size:60px;"">+</div>","null","html-keyboard-response","9","255028","0.0-9.0-0.0","4506xq","Tue Feb 16 2021 19:04:09 GMT+0100 (Centraleuropæisk normaltid)","2021","2","16","19","4","9","uc11","21","male","right","67","74","97","11","0","","","","","fixation","","","",""
"590.8849999996019","img/image_stim_f_stroop.png","70","image-keyboard-response","10","255650","0.0-9.0-1.0","4506xq","Tue Feb 16 2021 19:04:09 GMT+0100 (Centraleuropæisk normaltid)","2021","2","16","19","4","9","uc11","21","male","right","67","74","97","11","0","","","","","test","fear","happy","f","true"
"null","<div style=""font-size:60px;"">+</div>","null","html-keyboard-response","11","256910","0.0-9.0-0.1","4506xq","Tue Feb 16 2021 19:04:09 GMT+0100 (Centraleuropæisk normaltid)","2021","2","16","19","4","9","uc11","21","male","right","67","74","97","11","0","","","","","fixation","","","",""
"382.3750000001164","img/image_stim_f.png","70","image-keyboard-response","12","257295","0.0-9.0-1.1","4506xq","Tue Feb 16 2021 19:04:09 GMT+0100 (Centraleuropæisk normaltid)","2021","2","16","19","4","9","uc11","21","male","right","67","74","97","11","0","","","","","test","fear","fear","f","true"
"null","<div style=""font-size:60px;"">+</div>","null","html-keyboard-response","13","258801","0.0-9.0-0.2","4506xq","Tue Feb 16 2021 19:04:09 GMT+0100 (Centraleuropæisk normaltid)","2021","2","16","19","4","9","uc11","21","male","right","67","74","97","11","0","","","","","fixation","","","",""
"395.3250000004191","img/image_stim_h_stroop.png","72","image-keyboard-response","14","259199","0.0-9.0-1.2","4506xq","Tue Feb 16 2021 19:04:09 GMT+0100 (Centraleuropæisk normaltid)","2021","2","16","19","4","9","uc11","21","male","right","67","74","97","11","0","","","","","test","happy","fear","h","true"
"null","<div style=""font-size:60px;"">+</div>","null","html-keyboard-response","15","261206","0.0-9.0-0.3","4506xq","Tue Feb 16 2021 19:04:09 GMT+0100 (Centraleuropæisk normaltid)","2021","2","16","19","4","9","uc11","21","male","right","67","74","97","11","0","","","","","fixation","","","",""
"441.3100000001723","img/image_stim_h.png","72","image-keyboard-response","16","261650","0.0-9.0-1.3","4506xq","Tue Feb 16 2021 19:04:09 GMT+0100 (Centraleuropæisk normaltid)","2021","2","16","19","4","9","uc11","21","male","right","67","74","97","11","0","","","","","test","happy","happy","h","true"
"null","<div style=""font-size:60px;"">+</div>","null","html-keyboard-response","17","263407","0.0-9.0-0.4","4506xq","Tue Feb 16 2021 19:04:09 GMT+0100 (Centraleuropæisk normaltid)","2021","2","16","19","4","9","uc11","21","male","right","67","74","97","11","0","","","","","fixation","","","",""
"410.82999999978347","img/image_stim_h_stroop.png","72","image-keyboard-response","18","263820","0.0-9.0-1.4","4506xq","Tue Feb 16 2021 19:04:09 GMT+0100 (Centraleuropæisk normaltid)","2021","2","16","19","4","9","uc11","21","male","right","67","74","97","11","0","","","","","test","happy","fear","h","true"
"null","<div style=""font-size:60px;"">+</div>","null","html-keyboard-response","19","264326","0.0-9.0-0.5","4506xq","Tue Feb 16 2021 19:04:09 GMT+0100 (Centraleuropæisk normaltid)","2021","2","16","19","4","9","uc11","21","male","right","67","74","97","11","0","","","","","fixation","","","",""
"414.4550000000745","img/image_stim_h.png","72","image-keyboard-response","20","264743","0.0-9.0-1.5","4506xq","Tue Feb 16 2021 19:04:09 GMT+0100 (Centraleuropæisk normaltid)","2021","2","16","19","4","9","uc11","21","male","right","67","74","97","11","0","","","","","test","happy","happy","h","true"
"null","<div style=""font-size:60px;"">+</div>","null","html-keyboard-response","21","264999","0.0-9.0-0.6","4506xq","Tue Feb 16 2021 19:04:09 GMT+0100 (Centraleuropæisk normaltid)","2021","2","16","19","4","9","uc11","21","male","right","67","74","97","11","0","","","","","fixation","","","",""
"441.8900000000722","img/image_stim_f.png","70","image-keyboard-response","22","265444","0.0-9.0-1.6","4506xq","Tue Feb 16 2021 19:04:09 GMT+0100 (Centraleuropæisk normaltid)","2021","2","16","19","4","9","uc11","21","male","right","67","74","97","11","0","","","","","test","fear","fear","f","true"
"null","<div style=""font-size:60px;"">+</div>","null","html-keyboard-response","23","265954","0.0-9.0-0.7","4506xq","Tue Feb 16 2021 19:04:09 GMT+0100 (Centraleuropæisk normaltid)","2021","2","16","19","4","9","uc11","21","male","right","67","74","97","11","0","","","","","fixation","","","",""
"524.9350000004051","img/image_stim_f_stroop.png","70","image-keyboard-response","24","266482","0.0-9.0-1.7","4506xq","Tue Feb 16 2021 19:04:09 GMT+0100 (Centraleuropæisk normaltid)","2021","2","16","19","4","9","uc11","21","male","right","67","74","97","11","0","","","","","test","fear","happy","f","true"
"null","<div style=""font-size:60px;"">+</div>","null","html-keyboard-response","25","266737","0.0-9.0-0.8","4506xq","Tue Feb 16 2021 19:04:09 GMT+0100 (Centraleuropæisk normaltid)","2021","2","16","19","4","9","uc11","21","male","right","67","74","97","11","0","","","","","fixation","","","",""
"380.7000000005937","img/image_stim_f_stroop.png","70","image-keyboard-response","26","267120","0.0-9.0-1.8","4506xq","Tue Feb 16 2021 19:04:09 GMT+0100 (Centraleuropæisk normaltid)","2021","2","16","19","4","9","uc11","21","male","right","67","74","97","11","0","","","","","test","fear","happy","f","true"
"null","<div style=""font-size:60px;"">+</div>","null","html-keyboard-response","27","268376","0.0-9.0-0.9","4506xq","Tue Feb 16 2021 19:04:09 GMT+0100 (Centraleuropæisk normaltid)","2021","2","16","19","4","9","uc11","21","male","right","67","74","97","11","0","","","","","fixation","","","",""
"503.6199999995297","img/image_stim_h.png","72","image-keyboard-response","28","268882","0.0-9.0-1.9","4506xq","Tue Feb 16 2021 19:04:09 GMT+0100 (Centraleuropæisk normaltid)","2021","2","16","19","4","9","uc11","21","male","right","67","74","97","11","0","","","","","test","happy","happy","h","true"
"null","<div style=""font-size:60px;"">+</div>","null","html-keyboard-response","29","270638","0.0-9.0-0.10","4506xq","Tue Feb 16 2021 19:04:09 GMT+0100 (Centraleuropæisk normaltid)","2021","2","16","19","4","9","uc11","21","male","right","67","74","97","11","0","","","","","fixation","","","",""
"470.2449999995297","img/image_stim_f.png","70","image-keyboard-response","30","271111","0.0-9.0-1.10","4506xq","Tue Feb 16 2021 19:04:09 GMT+0100 (Centraleuropæisk normaltid)","2021","2","16","19","4","9","uc11","21","male","right","67","74","97","11","0","","","","","test","fear","fear","f","true"
"null","<div style=""font-size:60px;"">+</div>","null","html-keyboard-response","31","272866","0.0-9.0-0.11","4506xq","Tue Feb 16 2021 19:04:09 GMT+0100 (Centraleuropæisk normaltid)","2021","2","16","19","4","9","uc11","21","male","right","67","74","97","11","0","","","","","fixation","","","",""
"481.35499999992317","img/image_stim_h_stroop.png","72","image-keyboard-response","32","273350","0.0-9.0-1.11","4506xq","Tue Feb 16 2021 19:04:09 GMT+0100 (Centraleuropæisk normaltid)","2021","2","16","19","4","9","uc11","21","male","right","67","74","97","11","0","","","","","test","happy","fear","h","true"
"null","<div style=""font-size:60px;"">+</div>","null","html-keyboard-response","33","274356","0.0-9.0-0.12","4506xq","Tue Feb 16 2021 19:04:09 GMT+0100 (Centraleuropæisk normaltid)","2021","2","16","19","4","9","uc11","21","male","right","67","74","97","11","0","","","","","fixation","","","",""
"531.0200000003679","img/image_stim_f.png","70","image-keyboard-response","34","274890","0.0-9.0-1.12","4506xq","Tue Feb 16 2021 19:04:09 GMT+0100 (Centraleuropæisk normaltid)","2021","2","16","19","4","9","uc11","21","male","right","67","74","97","11","0","","","","","test","fear","fear","f","true"
"null","<div style=""font-size:60px;"">+</div>","null","html-keyboard-response","35","275146","0.0-9.0-0.13","4506xq","Tue Feb 16 2021 19:04:09 GMT+0100 (Centraleuropæisk normaltid)","2021","2","16","19","4","9","uc11","21","male","right","67","74","97","11","0","","","","","fixation","","","",""
"550.7600000000675","img/image_stim_h.png","72","image-keyboard-response","36","275700","0.0-9.0-1.13","4506xq","Tue Feb 16 2021 19:04:09 GMT+0100 (Centraleuropæisk normaltid)","2021","2","16","19","4","9","uc11","21","male","right","67","74","97","11","0","","","","","test","happy","happy","h","true"
"null","<div style=""font-size:60px;"">+</div>","null","html-keyboard-response","37","277457","0.0-9.0-0.14","4506xq","Tue Feb 16 2021 19:04:09 GMT+0100 (Centraleuropæisk normaltid)","2021","2","16","19","4","9","uc11","21","male","right","67","74","97","11","0","","","","","fixation","","","",""
"469.4149999995716","img/image_stim_f_stroop.png","70","image-keyboard-response","38","277929","0.0-9.0-1.14","4506xq","Tue Feb 16 2021 19:04:09 GMT+0100 (Centraleuropæisk normaltid)","2021","2","16","19","4","9","uc11","21","male","right","67","74","97","11","0","","","","","test","fear","happy","f","true"
"null","<div style=""font-size:60px;"">+</div>","null","html-keyboard-response","39","278185","0.0-9.0-0.15","4506xq","Tue Feb 16 2021 19:04:09 GMT+0100 (Centraleuropæisk normaltid)","2021","2","16","19","4","9","uc11","21","male","right","67","74","97","11","0","","","","","fixation","","","",""
"445.84000000031665","img/image_stim_h_stroop.png","72","image-keyboard-response","40","278634","0.0-9.0-1.15","4506xq","Tue Feb 16 2021 19:04:09 GMT+0100 (Centraleuropæisk normaltid)","2021","2","16","19","4","9","uc11","21","male","right","67","74","97","11","0","","","","","test","happy","fear","h","true"
"null","<div style=""font-size:60px;"">+</div>","null","html-keyboard-response","41","279641","0.0-9.0-0.16","4506xq","Tue Feb 16 2021 19:04:09 GMT+0100 (Centraleuropæisk normaltid)","2021","2","16","19","4","9","uc11","21","male","right","67","74","97","11","0","","","","","fixation","","","",""
"476.28499999974156","img/image_stim_h.png","72","image-keyboard-response","42","280120","0.0-9.0-1.16","4506xq","Tue Feb 16 2021 19:04:09 GMT+0100 (Centraleuropæisk normaltid)","2021","2","16","19","4","9","uc11","21","male","right","67","74","97","11","0","","","","","test","happy","happy","h","true"
"null","<div style=""font-size:60px;"">+</div>","null","html-keyboard-response","43","281377","0.0-9.0-0.17","4506xq","Tue Feb 16 2021 19:04:09 GMT+0100 (Centraleuropæisk normaltid)","2021","2","16","19","4","9","uc11","21","male","right","67","74","97","11","0","","","","","fixation","","","",""
"377.7449999998207","img/image_stim_h_stroop.png","72","image-keyboard-response","44","281758","0.0-9.0-1.17","4506xq","Tue Feb 16 2021 19:04:09 GMT+0100 (Centraleuropæisk normaltid)","2021","2","16","19","4","9","uc11","21","male","right","67","74","97","11","0","","","","","test","happy","fear","h","true"
"null","<div style=""font-size:60px;"">+</div>","null","html-keyboard-response","45","282016","0.0-9.0-0.18","4506xq","Tue Feb 16 2021 19:04:09 GMT+0100 (Centraleuropæisk normaltid)","2021","2","16","19","4","9","uc11","21","male","right","67","74","97","11","0","","","","","fixation","","","",""
"406.879999999539","img/image_stim_f.png","70","image-keyboard-response","46","282426","0.0-9.0-1.18","4506xq","Tue Feb 16 2021 19:04:09 GMT+0100 (Centraleuropæisk normaltid)","2021","2","16","19","4","9","uc11","21","male","right","67","74","97","11","0","","","","","test","fear","fear","f","true"
"null","<div style=""font-size:60px;"">+</div>","null","html-keyboard-response","47","284433","0.0-9.0-0.19","4506xq","Tue Feb 16 2021 19:04:09 GMT+0100 (Centraleuropæisk normaltid)","2021","2","16","19","4","9","uc11","21","male","right","67","74","97","11","0","","","","","fixation","","","",""
"391.5999999999767","img/image_stim_f_stroop.png","70","image-keyboard-response","48","284828","0.0-9.0-1.19","4506xq","Tue Feb 16 2021 19:04:09 GMT+0100 (Centraleuropæisk normaltid)","2021","2","16","19","4","9","uc11","21","male","right","67","74","97","11","0","","","","","test","fear","happy","f","true"
"null","<div style=""font-size:60px;"">+</div>","null","html-keyboard-response","49","285085","0.0-9.0-0.20","4506xq","Tue Feb 16 2021 19:04:09 GMT+0100 (Centraleuropæisk normaltid)","2021","2","16","19","4","9","uc11","21","male","right","67","74","97","11","0","","","","","fixation","","","",""
"387.82999999966705","img/image_stim_f.png","70","image-keyboard-response","50","285476","0.0-9.0-1.20","4506xq","Tue Feb 16 2021 19:04:09 GMT+0100 (Centraleuropæisk normaltid)","2021","2","16","19","4","9","uc11","21","male","right","67","74","97","11","0","","","","","test","fear","fear","f","true"
"null","<div style=""font-size:60px;"">+</div>","null","html-keyboard-response","51","287235","0.0-9.0-0.21","4506xq","Tue Feb 16 2021 19:04:09 GMT+0100 (Centraleuropæisk normaltid)","2021","2","16","19","4","9","uc11","21","male","right","67","74","97","11","0","","","","","fixation","","","",""
"341.12000000005355","img/image_stim_f_stroop.png","70","image-keyboard-response","52","287579","0.0-9.0-1.21","4506xq","Tue Feb 16 2021 19:04:09 GMT+0100 (Centraleuropæisk normaltid)","2021","2","16","19","4","9","uc11","21","male","right","67","74","97","11","0","","","","","test","fear","happy","f","true"
"null","<div style=""font-size:60px;"">+</div>","null","html-keyboard-response","53","289336","0.0-9.0-0.22","4506xq","Tue Feb 16 2021 19:04:09 GMT+0100 (Centraleuropæisk normaltid)","2021","2","16","19","4","9","uc11","21","male","right","67","74","97","11","0","","","","","fixation","","","",""
"431.12999999994645","img/image_stim_h.png","72","image-keyboard-response","54","289771","0.0-9.0-1.22","4506xq","Tue Feb 16 2021 19:04:09 GMT+0100 (Centraleuropæisk normaltid)","2021","2","16","19","4","9","uc11","21","male","right","67","74","97","11","0","","","","","test","happy","happy","h","true"
"null","<div style=""font-size:60px;"">+</div>","null","html-keyboard-response","55","290029","0.0-9.0-0.23","4506xq","Tue Feb 16 2021 19:04:09 GMT+0100 (Centraleuropæisk normaltid)","2021","2","16","19","4","9","uc11","21","male","right","67","74","97","11","0","","","","","fixation","","","",""
"370.17499999998836","img/image_stim_h_stroop.png","72","image-keyboard-response","56","290401","0.0-9.0-1.23","4506xq","Tue Feb 16 2021 19:04:09 GMT+0100 (Centraleuropæisk normaltid)","2021","2","16","19","4","9","uc11","21","male","right","67","74","97","11","0","","","","","test","happy","fear","h","true"
"null","<div style=""font-size:60px;"">+</div>","null","html-keyboard-response","57","292162","0.0-9.0-0.24","4506xq","Tue Feb 16 2021 19:04:09 GMT+0100 (Centraleuropæisk normaltid)","2021","2","16","19","4","9","uc11","21","male","right","67","74","97","11","0","","","","","fixation","","","",""
"437.00999999960186","img/image_stim_h.png","72","image-keyboard-response","58","292602","0.0-9.0-1.24","4506xq","Tue Feb 16 2021 19:04:09 GMT+0100 (Centraleuropæisk normaltid)","2021","2","16","19","4","9","uc11","21","male","right","67","74","97","11","0","","","","","test","happy","happy","h","true"
"null","<div style=""font-size:60px;"">+</div>","null","html-keyboard-response","59","293610","0.0-9.0-0.25","4506xq","Tue Feb 16 2021 19:04:09 GMT+0100 (Centraleuropæisk normaltid)","2021","2","16","19","4","9","uc11","21","male","right","67","74","97","11","0","","","","","fixation","","","",""
"428.7750000003143","img/image_stim_h_stroop.png","72","image-keyboard-response","60","294042","0.0-9.0-1.25","4506xq","Tue Feb 16 2021 19:04:09 GMT+0100 (Centraleuropæisk normaltid)","2021","2","16","19","4","9","uc11","21","male","right","67","74","97","11","0","","","","","test","happy","fear","h","true"
"null","<div style=""font-size:60px;"">+</div>","null","html-keyboard-response","61","294802","0.0-9.0-0.26","4506xq","Tue Feb 16 2021 19:04:09 GMT+0100 (Centraleuropæisk normaltid)","2021","2","16","19","4","9","uc11","21","male","right","67","74","97","11","0","","","","","fixation","","","",""
"382.73500000016065","img/image_stim_f.png","70","image-keyboard-response","62","295187","0.0-9.0-1.26","4506xq","Tue Feb 16 2021 19:04:09 GMT+0100 (Centraleuropæisk normaltid)","2021","2","16","19","4","9","uc11","21","male","right","67","74","97","11","0","","","","","test","fear","fear","f","true"
"null","<div style=""font-size:60px;"">+</div>","null","html-keyboard-response","63","296195","0.0-9.0-0.27","4506xq","Tue Feb 16 2021 19:04:09 GMT+0100 (Centraleuropæisk normaltid)","2021","2","16","19","4","9","uc11","21","male","right","67","74","97","11","0","","","","","fixation","","","",""
"532.5849999999627","img/image_stim_f_stroop.png","70","image-keyboard-response","64","296730","0.0-9.0-1.27","4506xq","Tue Feb 16 2021 19:04:09 GMT+0100 (Centraleuropæisk normaltid)","2021","2","16","19","4","9","uc11","21","male","right","67","74","97","11","0","","","","","test","fear","happy","f","true"
"null","<div style=""font-size:60px;"">+</div>","null","html-keyboard-response","65","296989","0.0-9.0-0.28","4506xq","Tue Feb 16 2021 19:04:09 GMT+0100 (Centraleuropæisk normaltid)","2021","2","16","19","4","9","uc11","21","male","right","67","74","97","11","0","","","","","fixation","","","",""
"466.199999999837","img/image_stim_f.png","70","image-keyboard-response","66","297458","0.0-9.0-1.28","4506xq","Tue Feb 16 2021 19:04:09 GMT+0100 (Centraleuropæisk normaltid)","2021","2","16","19","4","9","uc11","21","male","right","67","74","97","11","0","","","","","test","fear","fear","f","true"
"null","<div style=""font-size:60px;"">+</div>","null","html-keyboard-response","67","298468","0.0-9.0-0.29","4506xq","Tue Feb 16 2021 19:04:09 GMT+0100 (Centraleuropæisk normaltid)","2021","2","16","19","4","9","uc11","21","male","right","67","74","97","11","0","","","","","fixation","","","",""
"412.0199999997858","img/image_stim_f_stroop.png","70","image-keyboard-response","68","298884","0.0-9.0-1.29","4506xq","Tue Feb 16 2021 19:04:09 GMT+0100 (Centraleuropæisk normaltid)","2021","2","16","19","4","9","uc11","21","male","right","67","74","97","11","0","","","","","test","fear","happy","f","true"
"null","<div style=""font-size:60px;"">+</div>","null","html-keyboard-response","69","299155","0.0-9.0-0.30","4506xq","Tue Feb 16 2021 19:04:09 GMT+0100 (Centraleuropæisk normaltid)","2021","2","16","19","4","9","uc11","21","male","right","67","74","97","11","0","","","","","fixation","","","",""
"459.300000000454","img/image_stim_h_stroop.png","72","image-keyboard-response","70","299617","0.0-9.0-1.30","4506xq","Tue Feb 16 2021 19:04:09 GMT+0100 (Centraleuropæisk normaltid)","2021","2","16","19","4","9","uc11","21","male","right","67","74","97","11","0","","","","","test","happy","fear","h","true"
"null","<div style=""font-size:60px;"">+</div>","null","html-keyboard-response","71","300378","0.0-9.0-0.31","4506xq","Tue Feb 16 2021 19:04:09 GMT+0100 (Centraleuropæisk normaltid)","2021","2","16","19","4","9","uc11","21","male","right","67","74","97","11","0","","","","","fixation","","","",""
"582.9300000005169","img/image_stim_h.png","72","image-keyboard-response","72","300963","0.0-9.0-1.31","4506xq","Tue Feb 16 2021 19:04:09 GMT+0100 (Centraleuropæisk normaltid)","2021","2","16","19","4","9","uc11","21","male","right","67","74","97","11","0","","","","","test","happy","happy","h","true"
"null","<div style=""font-size:60px;"">+</div>","null","html-keyboard-response","73","301972","0.0-9.0-0.32","4506xq","Tue Feb 16 2021 19:04:09 GMT+0100 (Centraleuropæisk normaltid)","2021","2","16","19","4","9","uc11","21","male","right","67","74","97","11","0","","","","","fixation","","","",""
"439.0050000001793","img/image_stim_h_stroop.png","72","image-keyboard-response","74","302414","0.0-9.0-1.32","4506xq","Tue Feb 16 2021 19:04:09 GMT+0100 (Centraleuropæisk normaltid)","2021","2","16","19","4","9","uc11","21","male","right","67","74","97","11","0","","","","","test","happy","fear","h","true"
"null","<div style=""font-size:60px;"">+</div>","null","html-keyboard-response","75","302925","0.0-9.0-0.33","4506xq","Tue Feb 16 2021 19:04:09 GMT+0100 (Centraleuropæisk normaltid)","2021","2","16","19","4","9","uc11","21","male","right","67","74","97","11","0","","","","","fixation","","","",""
"508.85000000015134","img/image_stim_f_stroop.png","70","image-keyboard-response","76","303436","0.0-9.0-1.33","4506xq","Tue Feb 16 2021 19:04:09 GMT+0100 (Centraleuropæisk normaltid)","2021","2","16","19","4","9","uc11","21","male","right","67","74","97","11","0","","","","","test","fear","happy","f","true"
"null","<div style=""font-size:60px;"">+</div>","null","html-keyboard-response","77","303695","0.0-9.0-0.34","4506xq","Tue Feb 16 2021 19:04:09 GMT+0100 (Centraleuropæisk normaltid)","2021","2","16","19","4","9","uc11","21","male","right","67","74","97","11","0","","","","","fixation","","","",""
"396.87500000034925","img/image_stim_f.png","70","image-keyboard-response","78","304095","0.0-9.0-1.34","4506xq","Tue Feb 16 2021 19:04:09 GMT+0100 (Centraleuropæisk normaltid)","2021","2","16","19","4","9","uc11","21","male","right","67","74","97","11","0","","","","","test","fear","fear","f","true"
"null","<div style=""font-size:60px;"">+</div>","null","html-keyboard-response","79","304855","0.0-9.0-0.35","4506xq","Tue Feb 16 2021 19:04:09 GMT+0100 (Centraleuropæisk normaltid)","2021","2","16","19","4","9","uc11","21","male","right","67","74","97","11","0","","","","","fixation","","","",""
"463.8199999999488","img/image_stim_h.png","72","image-keyboard-response","80","305321","0.0-9.0-1.35","4506xq","Tue Feb 16 2021 19:04:09 GMT+0100 (Centraleuropæisk normaltid)","2021","2","16","19","4","9","uc11","21","male","right","67","74","97","11","0","","","","","test","happy","happy","h","true"
