"rt","stimulus","key_press","trial_type","trial_index","time_elapsed","internal_node_id","exp_id","Time","year","month","date","hour","minute","seconds","id","age","Gender","Handedness","mood","fresh","hunger","H_since_Sleep","H_since_Eat","responses","question_order","slider_start","response","test_part","face","word","correct_response","correct"
"1629","<p>Welcome to this experiment on daily rhythms and cognition.</p><p>First you will be asked some questions about yourself.</p><p>Then a short experiment will measure your response time.</p><p>Take the test at different times of the day/night.</p><p>The test is anonymous, but comparing your data across time is important.</p><p>Therefore, please make up and remember a personal ID (two letters+ two numbers).</p><p>Use this ID whenever taking the test.</p><p><strong>Press any key to begin.</strong></p>","32","html-keyboard-response","0","1631","0.0-0.0","ou490o","Thu Feb 10 2022 08:44:45 GMT+0100 (Mitteleuropäische Normalzeit)","2022","2","10","8","44","45","UR13","23","female","right","50","61","88","2","0","","","","","","","","",""
"4636","","","survey-text","1","6272","0.0-1.0","ou490o","Thu Feb 10 2022 08:44:45 GMT+0100 (Mitteleuropäische Normalzeit)","2022","2","10","8","44","45","UR13","23","female","right","50","61","88","2","0","{""Q0"":""UR13""}","","","","","","","",""
"2646","","","survey-text","2","8925","0.0-2.0","ou490o","Thu Feb 10 2022 08:44:45 GMT+0100 (Mitteleuropäische Normalzeit)","2022","2","10","8","44","45","UR13","23","female","right","50","61","88","2","0","{""Q0"":""23""}","","","","","","","",""
"2955","","","survey-multi-select","3","11925","0.0-3.0","ou490o","Thu Feb 10 2022 08:44:45 GMT+0100 (Mitteleuropäische Normalzeit)","2022","2","10","8","44","45","UR13","23","female","right","50","61","88","2","0","{""Gender"":[""female""],""Hand"":[""right""]}","[0,1]","","","","","","",""
"11841","<p>How Sad/Angry or Happy are you right now?</p>","","html-slider-response","4","23772","0.0-4.0","ou490o","Thu Feb 10 2022 08:44:45 GMT+0100 (Mitteleuropäische Normalzeit)","2022","2","10","8","44","45","UR13","23","female","right","50","61","88","2","0","","","50","50","","","","",""
"3900","<p>How Tired/Sleepy/Distracted or Fresh/Awake/Alert are you right now?</p>","","html-slider-response","5","27675","0.0-5.0","ou490o","Thu Feb 10 2022 08:44:45 GMT+0100 (Mitteleuropäische Normalzeit)","2022","2","10","8","44","45","UR13","23","female","right","50","61","88","2","0","","","50","61","","","","",""
"3363","<p>How Hungry or Satiated are you right now?</p>","","html-slider-response","6","31042","0.0-6.0","ou490o","Thu Feb 10 2022 08:44:45 GMT+0100 (Mitteleuropäische Normalzeit)","2022","2","10","8","44","45","UR13","23","female","right","50","61","88","2","0","","","50","88","","","","",""
"16612","","","survey-multi-select","7","47677","0.0-7.0","ou490o","Thu Feb 10 2022 08:44:45 GMT+0100 (Mitteleuropäische Normalzeit)","2022","2","10","8","44","45","UR13","23","female","right","50","61","88","2","0","{""Sleep"":[""2""],""Eat"":[""0""]}","[0,1]","","","","","","",""
"3328","<p>In this experiment, a face and a word will appear in the center of the screen.</p><p>If the face is <strong>happy</strong>, press the letter <strong>H</strong> with <strong>right</strong> index finger.</p><p>If the face is <strong>fearful</strong>, press the letter <strong>F</strong> with <strong>left</strong> index finger.</p><p><strong>Ignore the written words</strong>. Respond as fast as possible while being correct. </p><div style='width: 900px;'><div style='float: left;'><img src='img/stimuli_stroop_happy.png'></img><p class='small'><strong>Press the H key for happy faces</strong></p></div><div class='float: right;'><img src='img/stimuli_stroop_fear.png'></img><p class='small'><strong>Press the F key for faces with fear</strong></p></div></div><p>If the screen turns blank, press <strong>SPACE</strong></p><p><strong>Press any key to begin.</strong></p>","32","html-keyboard-response","8","51008","0.0-8.0","ou490o","Thu Feb 10 2022 08:44:45 GMT+0100 (Mitteleuropäische Normalzeit)","2022","2","10","8","44","45","UR13","23","female","right","50","61","88","2","0","","","","","","","","",""
"null","<div style=""font-size:60px;"">+</div>","null","html-keyboard-response","9","53781","0.0-9.0-0.0","ou490o","Thu Feb 10 2022 08:44:45 GMT+0100 (Mitteleuropäische Normalzeit)","2022","2","10","8","44","45","UR13","23","female","right","50","61","88","2","0","","","","","fixation","","","",""
"681","img/image_stim_f_stroop.png","70","image-keyboard-response","10","54467","0.0-9.0-1.0","ou490o","Thu Feb 10 2022 08:44:45 GMT+0100 (Mitteleuropäische Normalzeit)","2022","2","10","8","44","45","UR13","23","female","right","50","61","88","2","0","","","","","test","fear","happy","f","true"
"null","<div style=""font-size:60px;"">+</div>","null","html-keyboard-response","11","56479","0.0-9.0-0.1","ou490o","Thu Feb 10 2022 08:44:45 GMT+0100 (Mitteleuropäische Normalzeit)","2022","2","10","8","44","45","UR13","23","female","right","50","61","88","2","0","","","","","fixation","","","",""
"441","img/image_stim_h_stroop.png","72","image-keyboard-response","12","56924","0.0-9.0-1.1","ou490o","Thu Feb 10 2022 08:44:45 GMT+0100 (Mitteleuropäische Normalzeit)","2022","2","10","8","44","45","UR13","23","female","right","50","61","88","2","0","","","","","test","happy","fear","h","true"
"null","<div style=""font-size:60px;"">+</div>","null","html-keyboard-response","13","58441","0.0-9.0-0.2","ou490o","Thu Feb 10 2022 08:44:45 GMT+0100 (Mitteleuropäische Normalzeit)","2022","2","10","8","44","45","UR13","23","female","right","50","61","88","2","0","","","","","fixation","","","",""
"433","img/image_stim_h.png","72","image-keyboard-response","14","58879","0.0-9.0-1.2","ou490o","Thu Feb 10 2022 08:44:45 GMT+0100 (Mitteleuropäische Normalzeit)","2022","2","10","8","44","45","UR13","23","female","right","50","61","88","2","0","","","","","test","happy","happy","h","true"
"null","<div style=""font-size:60px;"">+</div>","null","html-keyboard-response","15","59391","0.0-9.0-0.3","ou490o","Thu Feb 10 2022 08:44:45 GMT+0100 (Mitteleuropäische Normalzeit)","2022","2","10","8","44","45","UR13","23","female","right","50","61","88","2","0","","","","","fixation","","","",""
"494","img/image_stim_f.png","70","image-keyboard-response","16","59893","0.0-9.0-1.3","ou490o","Thu Feb 10 2022 08:44:45 GMT+0100 (Mitteleuropäische Normalzeit)","2022","2","10","8","44","45","UR13","23","female","right","50","61","88","2","0","","","","","test","fear","fear","f","true"
"null","<div style=""font-size:60px;"">+</div>","null","html-keyboard-response","17","60654","0.0-9.0-0.4","ou490o","Thu Feb 10 2022 08:44:45 GMT+0100 (Mitteleuropäische Normalzeit)","2022","2","10","8","44","45","UR13","23","female","right","50","61","88","2","0","","","","","fixation","","","",""
"564","img/image_stim_f_stroop.png","70","image-keyboard-response","18","61220","0.0-9.0-1.4","ou490o","Thu Feb 10 2022 08:44:45 GMT+0100 (Mitteleuropäische Normalzeit)","2022","2","10","8","44","45","UR13","23","female","right","50","61","88","2","0","","","","","test","fear","happy","f","true"
"null","<div style=""font-size:60px;"">+</div>","null","html-keyboard-response","19","63238","0.0-9.0-0.5","ou490o","Thu Feb 10 2022 08:44:45 GMT+0100 (Mitteleuropäische Normalzeit)","2022","2","10","8","44","45","UR13","23","female","right","50","61","88","2","0","","","","","fixation","","","",""
"506","img/image_stim_f.png","70","image-keyboard-response","20","63744","0.0-9.0-1.5","ou490o","Thu Feb 10 2022 08:44:45 GMT+0100 (Mitteleuropäische Normalzeit)","2022","2","10","8","44","45","UR13","23","female","right","50","61","88","2","0","","","","","test","fear","fear","f","true"
"null","<div style=""font-size:60px;"">+</div>","null","html-keyboard-response","21","64006","0.0-9.0-0.6","ou490o","Thu Feb 10 2022 08:44:45 GMT+0100 (Mitteleuropäische Normalzeit)","2022","2","10","8","44","45","UR13","23","female","right","50","61","88","2","0","","","","","fixation","","","",""
"420","img/image_stim_h.png","72","image-keyboard-response","22","64428","0.0-9.0-1.6","ou490o","Thu Feb 10 2022 08:44:45 GMT+0100 (Mitteleuropäische Normalzeit)","2022","2","10","8","44","45","UR13","23","female","right","50","61","88","2","0","","","","","test","happy","happy","h","true"
"null","<div style=""font-size:60px;"">+</div>","null","html-keyboard-response","23","65689","0.0-9.0-0.7","ou490o","Thu Feb 10 2022 08:44:45 GMT+0100 (Mitteleuropäische Normalzeit)","2022","2","10","8","44","45","UR13","23","female","right","50","61","88","2","0","","","","","fixation","","","",""
"548","img/image_stim_h_stroop.png","72","image-keyboard-response","24","66239","0.0-9.0-1.7","ou490o","Thu Feb 10 2022 08:44:45 GMT+0100 (Mitteleuropäische Normalzeit)","2022","2","10","8","44","45","UR13","23","female","right","50","61","88","2","0","","","","","test","happy","fear","h","true"
"null","<div style=""font-size:60px;"">+</div>","null","html-keyboard-response","25","67759","0.0-9.0-0.8","ou490o","Thu Feb 10 2022 08:44:45 GMT+0100 (Mitteleuropäische Normalzeit)","2022","2","10","8","44","45","UR13","23","female","right","50","61","88","2","0","","","","","fixation","","","",""
"389","img/image_stim_h_stroop.png","72","image-keyboard-response","26","68149","0.0-9.0-1.8","ou490o","Thu Feb 10 2022 08:44:45 GMT+0100 (Mitteleuropäische Normalzeit)","2022","2","10","8","44","45","UR13","23","female","right","50","61","88","2","0","","","","","test","happy","fear","h","true"
"null","<div style=""font-size:60px;"">+</div>","null","html-keyboard-response","27","68909","0.0-9.0-0.9","ou490o","Thu Feb 10 2022 08:44:45 GMT+0100 (Mitteleuropäische Normalzeit)","2022","2","10","8","44","45","UR13","23","female","right","50","61","88","2","0","","","","","fixation","","","",""
"415","img/image_stim_h.png","72","image-keyboard-response","28","69326","0.0-9.0-1.9","ou490o","Thu Feb 10 2022 08:44:45 GMT+0100 (Mitteleuropäische Normalzeit)","2022","2","10","8","44","45","UR13","23","female","right","50","61","88","2","0","","","","","test","happy","happy","h","true"
"null","<div style=""font-size:60px;"">+</div>","null","html-keyboard-response","29","69583","0.0-9.0-0.10","ou490o","Thu Feb 10 2022 08:44:45 GMT+0100 (Mitteleuropäische Normalzeit)","2022","2","10","8","44","45","UR13","23","female","right","50","61","88","2","0","","","","","fixation","","","",""
"433","img/image_stim_f_stroop.png","70","image-keyboard-response","30","70017","0.0-9.0-1.10","ou490o","Thu Feb 10 2022 08:44:45 GMT+0100 (Mitteleuropäische Normalzeit)","2022","2","10","8","44","45","UR13","23","female","right","50","61","88","2","0","","","","","test","fear","happy","f","true"
"null","<div style=""font-size:60px;"">+</div>","null","html-keyboard-response","31","72026","0.0-9.0-0.11","ou490o","Thu Feb 10 2022 08:44:45 GMT+0100 (Mitteleuropäische Normalzeit)","2022","2","10","8","44","45","UR13","23","female","right","50","61","88","2","0","","","","","fixation","","","",""
"539","img/image_stim_f.png","70","image-keyboard-response","32","72567","0.0-9.0-1.11","ou490o","Thu Feb 10 2022 08:44:45 GMT+0100 (Mitteleuropäische Normalzeit)","2022","2","10","8","44","45","UR13","23","female","right","50","61","88","2","0","","","","","test","fear","fear","f","true"
"null","<div style=""font-size:60px;"">+</div>","null","html-keyboard-response","33","73075","0.0-9.0-0.12","ou490o","Thu Feb 10 2022 08:44:45 GMT+0100 (Mitteleuropäische Normalzeit)","2022","2","10","8","44","45","UR13","23","female","right","50","61","88","2","0","","","","","fixation","","","",""
"418","img/image_stim_f_stroop.png","70","image-keyboard-response","34","73495","0.0-9.0-1.12","ou490o","Thu Feb 10 2022 08:44:45 GMT+0100 (Mitteleuropäische Normalzeit)","2022","2","10","8","44","45","UR13","23","female","right","50","61","88","2","0","","","","","test","fear","happy","f","true"
"null","<div style=""font-size:60px;"">+</div>","null","html-keyboard-response","35","74506","0.0-9.0-0.13","ou490o","Thu Feb 10 2022 08:44:45 GMT+0100 (Mitteleuropäische Normalzeit)","2022","2","10","8","44","45","UR13","23","female","right","50","61","88","2","0","","","","","fixation","","","",""
"534","img/image_stim_h.png","72","image-keyboard-response","36","75041","0.0-9.0-1.13","ou490o","Thu Feb 10 2022 08:44:45 GMT+0100 (Mitteleuropäische Normalzeit)","2022","2","10","8","44","45","UR13","23","female","right","50","61","88","2","0","","","","","test","happy","happy","h","true"
"null","<div style=""font-size:60px;"">+</div>","null","html-keyboard-response","37","76808","0.0-9.0-0.14","ou490o","Thu Feb 10 2022 08:44:45 GMT+0100 (Mitteleuropäische Normalzeit)","2022","2","10","8","44","45","UR13","23","female","right","50","61","88","2","0","","","","","fixation","","","",""
"555","img/image_stim_h_stroop.png","72","image-keyboard-response","38","77362","0.0-9.0-1.14","ou490o","Thu Feb 10 2022 08:44:45 GMT+0100 (Mitteleuropäische Normalzeit)","2022","2","10","8","44","45","UR13","23","female","right","50","61","88","2","0","","","","","test","happy","fear","h","true"
"null","<div style=""font-size:60px;"">+</div>","null","html-keyboard-response","39","79115","0.0-9.0-0.15","ou490o","Thu Feb 10 2022 08:44:45 GMT+0100 (Mitteleuropäische Normalzeit)","2022","2","10","8","44","45","UR13","23","female","right","50","61","88","2","0","","","","","fixation","","","",""
"462","img/image_stim_f.png","70","image-keyboard-response","40","79579","0.0-9.0-1.15","ou490o","Thu Feb 10 2022 08:44:45 GMT+0100 (Mitteleuropäische Normalzeit)","2022","2","10","8","44","45","UR13","23","female","right","50","61","88","2","0","","","","","test","fear","fear","f","true"
"null","<div style=""font-size:60px;"">+</div>","null","html-keyboard-response","41","80096","0.0-9.0-0.16","ou490o","Thu Feb 10 2022 08:44:45 GMT+0100 (Mitteleuropäische Normalzeit)","2022","2","10","8","44","45","UR13","23","female","right","50","61","88","2","0","","","","","fixation","","","",""
"1086","img/image_stim_f_stroop.png","70","image-keyboard-response","42","81184","0.0-9.0-1.16","ou490o","Thu Feb 10 2022 08:44:45 GMT+0100 (Mitteleuropäische Normalzeit)","2022","2","10","8","44","45","UR13","23","female","right","50","61","88","2","0","","","","","test","fear","happy","f","true"
"null","<div style=""font-size:60px;"">+</div>","null","html-keyboard-response","43","83199","0.0-9.0-0.17","ou490o","Thu Feb 10 2022 08:44:45 GMT+0100 (Mitteleuropäische Normalzeit)","2022","2","10","8","44","45","UR13","23","female","right","50","61","88","2","0","","","","","fixation","","","",""
"572","img/image_stim_h_stroop.png","72","image-keyboard-response","44","83773","0.0-9.0-1.17","ou490o","Thu Feb 10 2022 08:44:45 GMT+0100 (Mitteleuropäische Normalzeit)","2022","2","10","8","44","45","UR13","23","female","right","50","61","88","2","0","","","","","test","happy","fear","h","true"
"null","<div style=""font-size:60px;"">+</div>","null","html-keyboard-response","45","85533","0.0-9.0-0.18","ou490o","Thu Feb 10 2022 08:44:45 GMT+0100 (Mitteleuropäische Normalzeit)","2022","2","10","8","44","45","UR13","23","female","right","50","61","88","2","0","","","","","fixation","","","",""
"468","img/image_stim_f.png","70","image-keyboard-response","46","86000","0.0-9.0-1.18","ou490o","Thu Feb 10 2022 08:44:45 GMT+0100 (Mitteleuropäische Normalzeit)","2022","2","10","8","44","45","UR13","23","female","right","50","61","88","2","0","","","","","test","fear","fear","f","true"
"null","<div style=""font-size:60px;"">+</div>","null","html-keyboard-response","47","87010","0.0-9.0-0.19","ou490o","Thu Feb 10 2022 08:44:45 GMT+0100 (Mitteleuropäische Normalzeit)","2022","2","10","8","44","45","UR13","23","female","right","50","61","88","2","0","","","","","fixation","","","",""
"506","img/image_stim_h.png","72","image-keyboard-response","48","87519","0.0-9.0-1.19","ou490o","Thu Feb 10 2022 08:44:45 GMT+0100 (Mitteleuropäische Normalzeit)","2022","2","10","8","44","45","UR13","23","female","right","50","61","88","2","0","","","","","test","happy","happy","h","true"
"null","<div style=""font-size:60px;"">+</div>","null","html-keyboard-response","49","88286","0.0-9.0-0.20","ou490o","Thu Feb 10 2022 08:44:45 GMT+0100 (Mitteleuropäische Normalzeit)","2022","2","10","8","44","45","UR13","23","female","right","50","61","88","2","0","","","","","fixation","","","",""
"464","img/image_stim_f.png","70","image-keyboard-response","50","88751","0.0-9.0-1.20","ou490o","Thu Feb 10 2022 08:44:45 GMT+0100 (Mitteleuropäische Normalzeit)","2022","2","10","8","44","45","UR13","23","female","right","50","61","88","2","0","","","","","test","fear","fear","f","true"
"null","<div style=""font-size:60px;"">+</div>","null","html-keyboard-response","51","89015","0.0-9.0-0.21","ou490o","Thu Feb 10 2022 08:44:45 GMT+0100 (Mitteleuropäische Normalzeit)","2022","2","10","8","44","45","UR13","23","female","right","50","61","88","2","0","","","","","fixation","","","",""
"575","img/image_stim_h.png","72","image-keyboard-response","52","89592","0.0-9.0-1.21","ou490o","Thu Feb 10 2022 08:44:45 GMT+0100 (Mitteleuropäische Normalzeit)","2022","2","10","8","44","45","UR13","23","female","right","50","61","88","2","0","","","","","test","happy","happy","h","true"
"null","<div style=""font-size:60px;"">+</div>","null","html-keyboard-response","53","91095","0.0-9.0-0.22","ou490o","Thu Feb 10 2022 08:44:45 GMT+0100 (Mitteleuropäische Normalzeit)","2022","2","10","8","44","45","UR13","23","female","right","50","61","88","2","0","","","","","fixation","","","",""
"609","img/image_stim_h_stroop.png","72","image-keyboard-response","54","91705","0.0-9.0-1.22","ou490o","Thu Feb 10 2022 08:44:45 GMT+0100 (Mitteleuropäische Normalzeit)","2022","2","10","8","44","45","UR13","23","female","right","50","61","88","2","0","","","","","test","happy","fear","h","true"
"null","<div style=""font-size:60px;"">+</div>","null","html-keyboard-response","55","91966","0.0-9.0-0.23","ou490o","Thu Feb 10 2022 08:44:45 GMT+0100 (Mitteleuropäische Normalzeit)","2022","2","10","8","44","45","UR13","23","female","right","50","61","88","2","0","","","","","fixation","","","",""
"427","img/image_stim_f_stroop.png","70","image-keyboard-response","56","92393","0.0-9.0-1.23","ou490o","Thu Feb 10 2022 08:44:45 GMT+0100 (Mitteleuropäische Normalzeit)","2022","2","10","8","44","45","UR13","23","female","right","50","61","88","2","0","","","","","test","fear","happy","f","true"
"null","<div style=""font-size:60px;"">+</div>","null","html-keyboard-response","57","93903","0.0-9.0-0.24","ou490o","Thu Feb 10 2022 08:44:45 GMT+0100 (Mitteleuropäische Normalzeit)","2022","2","10","8","44","45","UR13","23","female","right","50","61","88","2","0","","","","","fixation","","","",""
"605","img/image_stim_h_stroop.png","72","image-keyboard-response","58","94509","0.0-9.0-1.24","ou490o","Thu Feb 10 2022 08:44:45 GMT+0100 (Mitteleuropäische Normalzeit)","2022","2","10","8","44","45","UR13","23","female","right","50","61","88","2","0","","","","","test","happy","fear","h","true"
"null","<div style=""font-size:60px;"">+</div>","null","html-keyboard-response","59","96519","0.0-9.0-0.25","ou490o","Thu Feb 10 2022 08:44:45 GMT+0100 (Mitteleuropäische Normalzeit)","2022","2","10","8","44","45","UR13","23","female","right","50","61","88","2","0","","","","","fixation","","","",""
"463","img/image_stim_h.png","72","image-keyboard-response","60","96985","0.0-9.0-1.25","ou490o","Thu Feb 10 2022 08:44:45 GMT+0100 (Mitteleuropäische Normalzeit)","2022","2","10","8","44","45","UR13","23","female","right","50","61","88","2","0","","","","","test","happy","happy","h","true"
"null","<div style=""font-size:60px;"">+</div>","null","html-keyboard-response","61","98490","0.0-9.0-0.26","ou490o","Thu Feb 10 2022 08:44:45 GMT+0100 (Mitteleuropäische Normalzeit)","2022","2","10","8","44","45","UR13","23","female","right","50","61","88","2","0","","","","","fixation","","","",""
"353","img/image_stim_f.png","70","image-keyboard-response","62","98844","0.0-9.0-1.26","ou490o","Thu Feb 10 2022 08:44:45 GMT+0100 (Mitteleuropäische Normalzeit)","2022","2","10","8","44","45","UR13","23","female","right","50","61","88","2","0","","","","","test","fear","fear","f","true"
"null","<div style=""font-size:60px;"">+</div>","null","html-keyboard-response","63","100850","0.0-9.0-0.27","ou490o","Thu Feb 10 2022 08:44:45 GMT+0100 (Mitteleuropäische Normalzeit)","2022","2","10","8","44","45","UR13","23","female","right","50","61","88","2","0","","","","","fixation","","","",""
"560","img/image_stim_f_stroop.png","70","image-keyboard-response","64","101410","0.0-9.0-1.27","ou490o","Thu Feb 10 2022 08:44:45 GMT+0100 (Mitteleuropäische Normalzeit)","2022","2","10","8","44","45","UR13","23","female","right","50","61","88","2","0","","","","","test","fear","happy","f","true"
"null","<div style=""font-size:60px;"">+</div>","null","html-keyboard-response","65","102421","0.0-9.0-0.28","ou490o","Thu Feb 10 2022 08:44:45 GMT+0100 (Mitteleuropäische Normalzeit)","2022","2","10","8","44","45","UR13","23","female","right","50","61","88","2","0","","","","","fixation","","","",""
"512","img/image_stim_h.png","72","image-keyboard-response","66","102935","0.0-9.0-1.28","ou490o","Thu Feb 10 2022 08:44:45 GMT+0100 (Mitteleuropäische Normalzeit)","2022","2","10","8","44","45","UR13","23","female","right","50","61","88","2","0","","","","","test","happy","happy","h","true"
"null","<div style=""font-size:60px;"">+</div>","null","html-keyboard-response","67","103949","0.0-9.0-0.29","ou490o","Thu Feb 10 2022 08:44:45 GMT+0100 (Mitteleuropäische Normalzeit)","2022","2","10","8","44","45","UR13","23","female","right","50","61","88","2","0","","","","","fixation","","","",""
"489","img/image_stim_f.png","70","image-keyboard-response","68","104439","0.0-9.0-1.29","ou490o","Thu Feb 10 2022 08:44:45 GMT+0100 (Mitteleuropäische Normalzeit)","2022","2","10","8","44","45","UR13","23","female","right","50","61","88","2","0","","","","","test","fear","fear","f","true"
"null","<div style=""font-size:60px;"">+</div>","null","html-keyboard-response","69","104697","0.0-9.0-0.30","ou490o","Thu Feb 10 2022 08:44:45 GMT+0100 (Mitteleuropäische Normalzeit)","2022","2","10","8","44","45","UR13","23","female","right","50","61","88","2","0","","","","","fixation","","","",""
"533","img/image_stim_h_stroop.png","72","image-keyboard-response","70","105232","0.0-9.0-1.30","ou490o","Thu Feb 10 2022 08:44:45 GMT+0100 (Mitteleuropäische Normalzeit)","2022","2","10","8","44","45","UR13","23","female","right","50","61","88","2","0","","","","","test","happy","fear","h","true"
"null","<div style=""font-size:60px;"">+</div>","null","html-keyboard-response","71","106490","0.0-9.0-0.31","ou490o","Thu Feb 10 2022 08:44:45 GMT+0100 (Mitteleuropäische Normalzeit)","2022","2","10","8","44","45","UR13","23","female","right","50","61","88","2","0","","","","","fixation","","","",""
"477","img/image_stim_f_stroop.png","70","image-keyboard-response","72","106969","0.0-9.0-1.31","ou490o","Thu Feb 10 2022 08:44:45 GMT+0100 (Mitteleuropäische Normalzeit)","2022","2","10","8","44","45","UR13","23","female","right","50","61","88","2","0","","","","","test","fear","happy","f","true"
"null","<div style=""font-size:60px;"">+</div>","null","html-keyboard-response","73","107987","0.0-9.0-0.32","ou490o","Thu Feb 10 2022 08:44:45 GMT+0100 (Mitteleuropäische Normalzeit)","2022","2","10","8","44","45","UR13","23","female","right","50","61","88","2","0","","","","","fixation","","","",""
"441","img/image_stim_h.png","72","image-keyboard-response","74","108430","0.0-9.0-1.32","ou490o","Thu Feb 10 2022 08:44:45 GMT+0100 (Mitteleuropäische Normalzeit)","2022","2","10","8","44","45","UR13","23","female","right","50","61","88","2","0","","","","","test","happy","happy","h","true"
"null","<div style=""font-size:60px;"">+</div>","null","html-keyboard-response","75","109185","0.0-9.0-0.33","ou490o","Thu Feb 10 2022 08:44:45 GMT+0100 (Mitteleuropäische Normalzeit)","2022","2","10","8","44","45","UR13","23","female","right","50","61","88","2","0","","","","","fixation","","","",""
"449","img/image_stim_h_stroop.png","72","image-keyboard-response","76","109635","0.0-9.0-1.33","ou490o","Thu Feb 10 2022 08:44:45 GMT+0100 (Mitteleuropäische Normalzeit)","2022","2","10","8","44","45","UR13","23","female","right","50","61","88","2","0","","","","","test","happy","fear","h","true"
"null","<div style=""font-size:60px;"">+</div>","null","html-keyboard-response","77","111644","0.0-9.0-0.34","ou490o","Thu Feb 10 2022 08:44:45 GMT+0100 (Mitteleuropäische Normalzeit)","2022","2","10","8","44","45","UR13","23","female","right","50","61","88","2","0","","","","","fixation","","","",""
"556","img/image_stim_f.png","70","image-keyboard-response","78","112200","0.0-9.0-1.34","ou490o","Thu Feb 10 2022 08:44:45 GMT+0100 (Mitteleuropäische Normalzeit)","2022","2","10","8","44","45","UR13","23","female","right","50","61","88","2","0","","","","","test","fear","fear","f","true"
"null","<div style=""font-size:60px;"">+</div>","null","html-keyboard-response","79","113962","0.0-9.0-0.35","ou490o","Thu Feb 10 2022 08:44:45 GMT+0100 (Mitteleuropäische Normalzeit)","2022","2","10","8","44","45","UR13","23","female","right","50","61","88","2","0","","","","","fixation","","","",""
"523","img/image_stim_f_stroop.png","70","image-keyboard-response","80","114488","0.0-9.0-1.35","ou490o","Thu Feb 10 2022 08:44:45 GMT+0100 (Mitteleuropäische Normalzeit)","2022","2","10","8","44","45","UR13","23","female","right","50","61","88","2","0","","","","","test","fear","happy","f","true"
