"rt","stimulus","key_press","trial_type","trial_index","time_elapsed","internal_node_id","exp_id","Time","year","month","date","hour","minute","seconds","id","age","Gender","Handedness","mood","fresh","hunger","H_since_Sleep","H_since_Eat","responses","question_order","slider_start","response","test_part","face","word","correct_response","correct"
"22391","<p>Welcome to this experiment on daily rhythms and cognition.</p><p>First you will be asked some questions about yourself.</p><p>Then a short experiment will measure your response time.</p><p>Take the test at different times of the day/night.</p><p>The test is anonymous, but comparing your data across time is important.</p><p>Therefore, please make up and remember a personal ID (two letters+ two numbers).</p><p>Use this ID whenever taking the test.</p><p><strong>Press any key to begin.</strong></p>","32","html-keyboard-response","0","22395","0.0-0.0","ws865e","Thu Feb 10 2022 10:47:35 GMT+0100 (CET)","2022","2","10","10","47","35","mf21","21","female","right","100","87","96","1","1","","","","","","","","",""
"5720","","","survey-text","1","28142","0.0-1.0","ws865e","Thu Feb 10 2022 10:47:35 GMT+0100 (CET)","2022","2","10","10","47","35","mf21","21","female","right","100","87","96","1","1","{""Q0"":""mf21""}","","","","","","","",""
"3092.0000000000036","","","survey-text","2","31239","0.0-2.0","ws865e","Thu Feb 10 2022 10:47:35 GMT+0100 (CET)","2022","2","10","10","47","35","mf21","21","female","right","100","87","96","1","1","{""Q0"":""21""}","","","","","","","",""
"4334","","","survey-multi-select","3","35576","0.0-3.0","ws865e","Thu Feb 10 2022 10:47:35 GMT+0100 (CET)","2022","2","10","10","47","35","mf21","21","female","right","100","87","96","1","1","{""Gender"":[""female""],""Hand"":[""right""]}","[0,1]","","","","","","",""
"4247.999999999993","<p>How Sad/Angry or Happy are you right now?</p>","","html-slider-response","4","39825","0.0-4.0","ws865e","Thu Feb 10 2022 10:47:35 GMT+0100 (CET)","2022","2","10","10","47","35","mf21","21","female","right","100","87","96","1","1","","","50","100","","","","",""
"5676.999999999993","<p>How Tired/Sleepy/Distracted or Fresh/Awake/Alert are you right now?</p>","","html-slider-response","5","45504","0.0-5.0","ws865e","Thu Feb 10 2022 10:47:35 GMT+0100 (CET)","2022","2","10","10","47","35","mf21","21","female","right","100","87","96","1","1","","","50","87","","","","",""
"4267.000000000007","<p>How Hungry or Satiated are you right now?</p>","","html-slider-response","6","49773","0.0-6.0","ws865e","Thu Feb 10 2022 10:47:35 GMT+0100 (CET)","2022","2","10","10","47","35","mf21","21","female","right","100","87","96","1","1","","","50","96","","","","",""
"14546.999999999985","","","survey-multi-select","7","64332","0.0-7.0","ws865e","Thu Feb 10 2022 10:47:35 GMT+0100 (CET)","2022","2","10","10","47","35","mf21","21","female","right","100","87","96","1","1","{""Sleep"":[""1""],""Eat"":[""1""]}","[0,1]","","","","","","",""
"20355.999999999993","<p>In this experiment, a face and a word will appear in the center of the screen.</p><p>If the face is <strong>happy</strong>, press the letter <strong>H</strong> with <strong>right</strong> index finger.</p><p>If the face is <strong>fearful</strong>, press the letter <strong>F</strong> with <strong>left</strong> index finger.</p><p><strong>Ignore the written words</strong>. Respond as fast as possible while being correct. </p><div style='width: 900px;'><div style='float: left;'><img src='img/stimuli_stroop_happy.png'></img><p class='small'><strong>Press the H key for happy faces</strong></p></div><div class='float: right;'><img src='img/stimuli_stroop_fear.png'></img><p class='small'><strong>Press the F key for faces with fear</strong></p></div></div><p>If the screen turns blank, press <strong>SPACE</strong></p><p><strong>Press any key to begin.</strong></p>","32","html-keyboard-response","8","84690","0.0-8.0","ws865e","Thu Feb 10 2022 10:47:35 GMT+0100 (CET)","2022","2","10","10","47","35","mf21","21","female","right","100","87","96","1","1","","","","","","","","",""
"null","<div style=""font-size:60px;"">+</div>","null","html-keyboard-response","9","88444","0.0-9.0-0.0","ws865e","Thu Feb 10 2022 10:47:35 GMT+0100 (CET)","2022","2","10","10","47","35","mf21","21","female","right","100","87","96","1","1","","","","","fixation","","","",""
"698","img/image_stim_f.png","70","image-keyboard-response","10","89154","0.0-9.0-1.0","ws865e","Thu Feb 10 2022 10:47:35 GMT+0100 (CET)","2022","2","10","10","47","35","mf21","21","female","right","100","87","96","1","1","","","","","test","fear","fear","f","true"
"null","<div style=""font-size:60px;"">+</div>","null","html-keyboard-response","11","91161","0.0-9.0-0.1","ws865e","Thu Feb 10 2022 10:47:35 GMT+0100 (CET)","2022","2","10","10","47","35","mf21","21","female","right","100","87","96","1","1","","","","","fixation","","","",""
"805","img/image_stim_f_stroop.png","72","image-keyboard-response","12","91972","0.0-9.0-1.1","ws865e","Thu Feb 10 2022 10:47:35 GMT+0100 (CET)","2022","2","10","10","47","35","mf21","21","female","right","100","87","96","1","1","","","","","test","fear","happy","f","false"
"null","<div style=""font-size:60px;"">+</div>","null","html-keyboard-response","13","93728","0.0-9.0-0.2","ws865e","Thu Feb 10 2022 10:47:35 GMT+0100 (CET)","2022","2","10","10","47","35","mf21","21","female","right","100","87","96","1","1","","","","","fixation","","","",""
"722.0000000000146","img/image_stim_h_stroop.png","72","image-keyboard-response","14","94456","0.0-9.0-1.2","ws865e","Thu Feb 10 2022 10:47:35 GMT+0100 (CET)","2022","2","10","10","47","35","mf21","21","female","right","100","87","96","1","1","","","","","test","happy","fear","h","true"
"null","<div style=""font-size:60px;"">+</div>","null","html-keyboard-response","15","95212","0.0-9.0-0.3","ws865e","Thu Feb 10 2022 10:47:35 GMT+0100 (CET)","2022","2","10","10","47","35","mf21","21","female","right","100","87","96","1","1","","","","","fixation","","","",""
"608","img/image_stim_h.png","72","image-keyboard-response","16","95830","0.0-9.0-1.3","ws865e","Thu Feb 10 2022 10:47:35 GMT+0100 (CET)","2022","2","10","10","47","35","mf21","21","female","right","100","87","96","1","1","","","","","test","happy","happy","h","true"
"null","<div style=""font-size:60px;"">+</div>","null","html-keyboard-response","17","97587","0.0-9.0-0.4","ws865e","Thu Feb 10 2022 10:47:35 GMT+0100 (CET)","2022","2","10","10","47","35","mf21","21","female","right","100","87","96","1","1","","","","","fixation","","","",""
"481","img/image_stim_h_stroop.png","72","image-keyboard-response","18","98070","0.0-9.0-1.4","ws865e","Thu Feb 10 2022 10:47:35 GMT+0100 (CET)","2022","2","10","10","47","35","mf21","21","female","right","100","87","96","1","1","","","","","test","happy","fear","h","true"
"null","<div style=""font-size:60px;"">+</div>","null","html-keyboard-response","19","99576","0.0-9.0-0.5","ws865e","Thu Feb 10 2022 10:47:35 GMT+0100 (CET)","2022","2","10","10","47","35","mf21","21","female","right","100","87","96","1","1","","","","","fixation","","","",""
"453.99999999998545","img/image_stim_f_stroop.png","70","image-keyboard-response","20","100032","0.0-9.0-1.5","ws865e","Thu Feb 10 2022 10:47:35 GMT+0100 (CET)","2022","2","10","10","47","35","mf21","21","female","right","100","87","96","1","1","","","","","test","fear","happy","f","true"
"null","<div style=""font-size:60px;"">+</div>","null","html-keyboard-response","21","100289","0.0-9.0-0.6","ws865e","Thu Feb 10 2022 10:47:35 GMT+0100 (CET)","2022","2","10","10","47","35","mf21","21","female","right","100","87","96","1","1","","","","","fixation","","","",""
"607","img/image_stim_h.png","72","image-keyboard-response","22","100898","0.0-9.0-1.6","ws865e","Thu Feb 10 2022 10:47:35 GMT+0100 (CET)","2022","2","10","10","47","35","mf21","21","female","right","100","87","96","1","1","","","","","test","happy","happy","h","true"
"null","<div style=""font-size:60px;"">+</div>","null","html-keyboard-response","23","102904","0.0-9.0-0.7","ws865e","Thu Feb 10 2022 10:47:35 GMT+0100 (CET)","2022","2","10","10","47","35","mf21","21","female","right","100","87","96","1","1","","","","","fixation","","","",""
"480","img/image_stim_f.png","70","image-keyboard-response","24","103386","0.0-9.0-1.7","ws865e","Thu Feb 10 2022 10:47:35 GMT+0100 (CET)","2022","2","10","10","47","35","mf21","21","female","right","100","87","96","1","1","","","","","test","fear","fear","f","true"
"null","<div style=""font-size:60px;"">+</div>","null","html-keyboard-response","25","104892","0.0-9.0-0.8","ws865e","Thu Feb 10 2022 10:47:35 GMT+0100 (CET)","2022","2","10","10","47","35","mf21","21","female","right","100","87","96","1","1","","","","","fixation","","","",""
"528.0000000000146","img/image_stim_f_stroop.png","70","image-keyboard-response","26","105423","0.0-9.0-1.8","ws865e","Thu Feb 10 2022 10:47:35 GMT+0100 (CET)","2022","2","10","10","47","35","mf21","21","female","right","100","87","96","1","1","","","","","test","fear","happy","f","true"
"null","<div style=""font-size:60px;"">+</div>","null","html-keyboard-response","27","106931","0.0-9.0-0.9","ws865e","Thu Feb 10 2022 10:47:35 GMT+0100 (CET)","2022","2","10","10","47","35","mf21","21","female","right","100","87","96","1","1","","","","","fixation","","","",""
"441","img/image_stim_f.png","70","image-keyboard-response","28","107374","0.0-9.0-1.9","ws865e","Thu Feb 10 2022 10:47:35 GMT+0100 (CET)","2022","2","10","10","47","35","mf21","21","female","right","100","87","96","1","1","","","","","test","fear","fear","f","true"
"null","<div style=""font-size:60px;"">+</div>","null","html-keyboard-response","29","107631","0.0-9.0-0.10","ws865e","Thu Feb 10 2022 10:47:35 GMT+0100 (CET)","2022","2","10","10","47","35","mf21","21","female","right","100","87","96","1","1","","","","","fixation","","","",""
"526","img/image_stim_h.png","72","image-keyboard-response","30","108159","0.0-9.0-1.10","ws865e","Thu Feb 10 2022 10:47:35 GMT+0100 (CET)","2022","2","10","10","47","35","mf21","21","female","right","100","87","96","1","1","","","","","test","happy","happy","h","true"
"null","<div style=""font-size:60px;"">+</div>","null","html-keyboard-response","31","109915","0.0-9.0-0.11","ws865e","Thu Feb 10 2022 10:47:35 GMT+0100 (CET)","2022","2","10","10","47","35","mf21","21","female","right","100","87","96","1","1","","","","","fixation","","","",""
"513","img/image_stim_h_stroop.png","70","image-keyboard-response","32","110430","0.0-9.0-1.11","ws865e","Thu Feb 10 2022 10:47:35 GMT+0100 (CET)","2022","2","10","10","47","35","mf21","21","female","right","100","87","96","1","1","","","","","test","happy","fear","h","false"
"null","<div style=""font-size:60px;"">+</div>","null","html-keyboard-response","33","111435","0.0-9.0-0.12","ws865e","Thu Feb 10 2022 10:47:35 GMT+0100 (CET)","2022","2","10","10","47","35","mf21","21","female","right","100","87","96","1","1","","","","","fixation","","","",""
"686","img/image_stim_h.png","72","image-keyboard-response","34","112123","0.0-9.0-1.12","ws865e","Thu Feb 10 2022 10:47:35 GMT+0100 (CET)","2022","2","10","10","47","35","mf21","21","female","right","100","87","96","1","1","","","","","test","happy","happy","h","true"
"null","<div style=""font-size:60px;"">+</div>","null","html-keyboard-response","35","113881","0.0-9.0-0.13","ws865e","Thu Feb 10 2022 10:47:35 GMT+0100 (CET)","2022","2","10","10","47","35","mf21","21","female","right","100","87","96","1","1","","","","","fixation","","","",""
"700.0000000000146","img/image_stim_f_stroop.png","70","image-keyboard-response","36","114584","0.0-9.0-1.13","ws865e","Thu Feb 10 2022 10:47:35 GMT+0100 (CET)","2022","2","10","10","47","35","mf21","21","female","right","100","87","96","1","1","","","","","test","fear","happy","f","true"
"null","<div style=""font-size:60px;"">+</div>","null","html-keyboard-response","37","115592","0.0-9.0-0.14","ws865e","Thu Feb 10 2022 10:47:35 GMT+0100 (CET)","2022","2","10","10","47","35","mf21","21","female","right","100","87","96","1","1","","","","","fixation","","","",""
"682","img/image_stim_f.png","70","image-keyboard-response","38","116276","0.0-9.0-1.14","ws865e","Thu Feb 10 2022 10:47:35 GMT+0100 (CET)","2022","2","10","10","47","35","mf21","21","female","right","100","87","96","1","1","","","","","test","fear","fear","f","true"
"null","<div style=""font-size:60px;"">+</div>","null","html-keyboard-response","39","118285","0.0-9.0-0.15","ws865e","Thu Feb 10 2022 10:47:35 GMT+0100 (CET)","2022","2","10","10","47","35","mf21","21","female","right","100","87","96","1","1","","","","","fixation","","","",""
"727","img/image_stim_h_stroop.png","72","image-keyboard-response","40","119014","0.0-9.0-1.15","ws865e","Thu Feb 10 2022 10:47:35 GMT+0100 (CET)","2022","2","10","10","47","35","mf21","21","female","right","100","87","96","1","1","","","","","test","happy","fear","h","true"
"null","<div style=""font-size:60px;"">+</div>","null","html-keyboard-response","41","120277","0.0-9.0-0.16","ws865e","Thu Feb 10 2022 10:47:35 GMT+0100 (CET)","2022","2","10","10","47","35","mf21","21","female","right","100","87","96","1","1","","","","","fixation","","","",""
"520","img/image_stim_f_stroop.png","70","image-keyboard-response","42","120799","0.0-9.0-1.16","ws865e","Thu Feb 10 2022 10:47:35 GMT+0100 (CET)","2022","2","10","10","47","35","mf21","21","female","right","100","87","96","1","1","","","","","test","fear","happy","f","true"
"null","<div style=""font-size:60px;"">+</div>","null","html-keyboard-response","43","121307","0.0-9.0-0.17","ws865e","Thu Feb 10 2022 10:47:35 GMT+0100 (CET)","2022","2","10","10","47","35","mf21","21","female","right","100","87","96","1","1","","","","","fixation","","","",""
"900.0000000000146","img/image_stim_h.png","72","image-keyboard-response","44","122209","0.0-9.0-1.17","ws865e","Thu Feb 10 2022 10:47:35 GMT+0100 (CET)","2022","2","10","10","47","35","mf21","21","female","right","100","87","96","1","1","","","","","test","happy","happy","h","true"
"null","<div style=""font-size:60px;"">+</div>","null","html-keyboard-response","45","123218","0.0-9.0-0.18","ws865e","Thu Feb 10 2022 10:47:35 GMT+0100 (CET)","2022","2","10","10","47","35","mf21","21","female","right","100","87","96","1","1","","","","","fixation","","","",""
"672","img/image_stim_h_stroop.png","72","image-keyboard-response","46","123891","0.0-9.0-1.18","ws865e","Thu Feb 10 2022 10:47:35 GMT+0100 (CET)","2022","2","10","10","47","35","mf21","21","female","right","100","87","96","1","1","","","","","test","happy","fear","h","true"
"null","<div style=""font-size:60px;"">+</div>","null","html-keyboard-response","47","124650","0.0-9.0-0.19","ws865e","Thu Feb 10 2022 10:47:35 GMT+0100 (CET)","2022","2","10","10","47","35","mf21","21","female","right","100","87","96","1","1","","","","","fixation","","","",""
"575.0000000000146","img/image_stim_f.png","70","image-keyboard-response","48","125227","0.0-9.0-1.19","ws865e","Thu Feb 10 2022 10:47:35 GMT+0100 (CET)","2022","2","10","10","47","35","mf21","21","female","right","100","87","96","1","1","","","","","test","fear","fear","f","true"
"null","<div style=""font-size:60px;"">+</div>","null","html-keyboard-response","49","126986","0.0-9.0-0.20","ws865e","Thu Feb 10 2022 10:47:35 GMT+0100 (CET)","2022","2","10","10","47","35","mf21","21","female","right","100","87","96","1","1","","","","","fixation","","","",""
"459.99999999998545","img/image_stim_h.png","72","image-keyboard-response","50","127450","0.0-9.0-1.20","ws865e","Thu Feb 10 2022 10:47:35 GMT+0100 (CET)","2022","2","10","10","47","35","mf21","21","female","right","100","87","96","1","1","","","","","test","happy","happy","h","true"
"null","<div style=""font-size:60px;"">+</div>","null","html-keyboard-response","51","129208","0.0-9.0-0.21","ws865e","Thu Feb 10 2022 10:47:35 GMT+0100 (CET)","2022","2","10","10","47","35","mf21","21","female","right","100","87","96","1","1","","","","","fixation","","","",""
"506","img/image_stim_f.png","70","image-keyboard-response","52","129717","0.0-9.0-1.21","ws865e","Thu Feb 10 2022 10:47:35 GMT+0100 (CET)","2022","2","10","10","47","35","mf21","21","female","right","100","87","96","1","1","","","","","test","fear","fear","f","true"
"null","<div style=""font-size:60px;"">+</div>","null","html-keyboard-response","53","131725","0.0-9.0-0.22","ws865e","Thu Feb 10 2022 10:47:35 GMT+0100 (CET)","2022","2","10","10","47","35","mf21","21","female","right","100","87","96","1","1","","","","","fixation","","","",""
"586","img/image_stim_h_stroop.png","72","image-keyboard-response","54","132314","0.0-9.0-1.22","ws865e","Thu Feb 10 2022 10:47:35 GMT+0100 (CET)","2022","2","10","10","47","35","mf21","21","female","right","100","87","96","1","1","","","","","test","happy","fear","h","true"
"null","<div style=""font-size:60px;"">+</div>","null","html-keyboard-response","55","133073","0.0-9.0-0.23","ws865e","Thu Feb 10 2022 10:47:35 GMT+0100 (CET)","2022","2","10","10","47","35","mf21","21","female","right","100","87","96","1","1","","","","","fixation","","","",""
"583","img/image_stim_f_stroop.png","70","image-keyboard-response","56","133659","0.0-9.0-1.23","ws865e","Thu Feb 10 2022 10:47:35 GMT+0100 (CET)","2022","2","10","10","47","35","mf21","21","female","right","100","87","96","1","1","","","","","test","fear","happy","f","true"
"null","<div style=""font-size:60px;"">+</div>","null","html-keyboard-response","57","134671","0.0-9.0-0.24","ws865e","Thu Feb 10 2022 10:47:35 GMT+0100 (CET)","2022","2","10","10","47","35","mf21","21","female","right","100","87","96","1","1","","","","","fixation","","","",""
"544","img/image_stim_f_stroop.png","70","image-keyboard-response","58","135217","0.0-9.0-1.24","ws865e","Thu Feb 10 2022 10:47:35 GMT+0100 (CET)","2022","2","10","10","47","35","mf21","21","female","right","100","87","96","1","1","","","","","test","fear","happy","f","true"
"null","<div style=""font-size:60px;"">+</div>","null","html-keyboard-response","59","135727","0.0-9.0-0.25","ws865e","Thu Feb 10 2022 10:47:35 GMT+0100 (CET)","2022","2","10","10","47","35","mf21","21","female","right","100","87","96","1","1","","","","","fixation","","","",""
"509","img/image_stim_h.png","72","image-keyboard-response","60","136238","0.0-9.0-1.25","ws865e","Thu Feb 10 2022 10:47:35 GMT+0100 (CET)","2022","2","10","10","47","35","mf21","21","female","right","100","87","96","1","1","","","","","test","happy","happy","h","true"
"null","<div style=""font-size:60px;"">+</div>","null","html-keyboard-response","61","138248","0.0-9.0-0.26","ws865e","Thu Feb 10 2022 10:47:35 GMT+0100 (CET)","2022","2","10","10","47","35","mf21","21","female","right","100","87","96","1","1","","","","","fixation","","","",""
"663","img/image_stim_h_stroop.png","70","image-keyboard-response","62","138914","0.0-9.0-1.26","ws865e","Thu Feb 10 2022 10:47:35 GMT+0100 (CET)","2022","2","10","10","47","35","mf21","21","female","right","100","87","96","1","1","","","","","test","happy","fear","h","false"
"null","<div style=""font-size:60px;"">+</div>","null","html-keyboard-response","63","140424","0.0-9.0-0.27","ws865e","Thu Feb 10 2022 10:47:35 GMT+0100 (CET)","2022","2","10","10","47","35","mf21","21","female","right","100","87","96","1","1","","","","","fixation","","","",""
"678","img/image_stim_f.png","70","image-keyboard-response","64","141104","0.0-9.0-1.27","ws865e","Thu Feb 10 2022 10:47:35 GMT+0100 (CET)","2022","2","10","10","47","35","mf21","21","female","right","100","87","96","1","1","","","","","test","fear","fear","f","true"
"null","<div style=""font-size:60px;"">+</div>","null","html-keyboard-response","65","142864","0.0-9.0-0.28","ws865e","Thu Feb 10 2022 10:47:35 GMT+0100 (CET)","2022","2","10","10","47","35","mf21","21","female","right","100","87","96","1","1","","","","","fixation","","","",""
"512.9999999999709","img/image_stim_h.png","72","image-keyboard-response","66","143378","0.0-9.0-1.28","ws865e","Thu Feb 10 2022 10:47:35 GMT+0100 (CET)","2022","2","10","10","47","35","mf21","21","female","right","100","87","96","1","1","","","","","test","happy","happy","h","true"
"null","<div style=""font-size:60px;"">+</div>","null","html-keyboard-response","67","143889","0.0-9.0-0.29","ws865e","Thu Feb 10 2022 10:47:35 GMT+0100 (CET)","2022","2","10","10","47","35","mf21","21","female","right","100","87","96","1","1","","","","","fixation","","","",""
"704","img/image_stim_h_stroop.png","72","image-keyboard-response","68","144594","0.0-9.0-1.29","ws865e","Thu Feb 10 2022 10:47:35 GMT+0100 (CET)","2022","2","10","10","47","35","mf21","21","female","right","100","87","96","1","1","","","","","test","happy","fear","h","true"
"null","<div style=""font-size:60px;"">+</div>","null","html-keyboard-response","69","144856","0.0-9.0-0.30","ws865e","Thu Feb 10 2022 10:47:35 GMT+0100 (CET)","2022","2","10","10","47","35","mf21","21","female","right","100","87","96","1","1","","","","","fixation","","","",""
"792","img/image_stim_f.png","70","image-keyboard-response","70","145649","0.0-9.0-1.30","ws865e","Thu Feb 10 2022 10:47:35 GMT+0100 (CET)","2022","2","10","10","47","35","mf21","21","female","right","100","87","96","1","1","","","","","test","fear","fear","f","true"
"null","<div style=""font-size:60px;"">+</div>","null","html-keyboard-response","71","146658","0.0-9.0-0.31","ws865e","Thu Feb 10 2022 10:47:35 GMT+0100 (CET)","2022","2","10","10","47","35","mf21","21","female","right","100","87","96","1","1","","","","","fixation","","","",""
"719","img/image_stim_f_stroop.png","70","image-keyboard-response","72","147379","0.0-9.0-1.31","ws865e","Thu Feb 10 2022 10:47:35 GMT+0100 (CET)","2022","2","10","10","47","35","mf21","21","female","right","100","87","96","1","1","","","","","test","fear","happy","f","true"
"null","<div style=""font-size:60px;"">+</div>","null","html-keyboard-response","73","148642","0.0-9.0-0.32","ws865e","Thu Feb 10 2022 10:47:35 GMT+0100 (CET)","2022","2","10","10","47","35","mf21","21","female","right","100","87","96","1","1","","","","","fixation","","","",""
"582.9999999999709","img/image_stim_f_stroop.png","70","image-keyboard-response","74","149228","0.0-9.0-1.32","ws865e","Thu Feb 10 2022 10:47:35 GMT+0100 (CET)","2022","2","10","10","47","35","mf21","21","female","right","100","87","96","1","1","","","","","test","fear","happy","f","true"
"null","<div style=""font-size:60px;"">+</div>","null","html-keyboard-response","75","151239","0.0-9.0-0.33","ws865e","Thu Feb 10 2022 10:47:35 GMT+0100 (CET)","2022","2","10","10","47","35","mf21","21","female","right","100","87","96","1","1","","","","","fixation","","","",""
"528","img/image_stim_h_stroop.png","72","image-keyboard-response","76","151769","0.0-9.0-1.33","ws865e","Thu Feb 10 2022 10:47:35 GMT+0100 (CET)","2022","2","10","10","47","35","mf21","21","female","right","100","87","96","1","1","","","","","test","happy","fear","h","true"
"null","<div style=""font-size:60px;"">+</div>","null","html-keyboard-response","77","152280","0.0-9.0-0.34","ws865e","Thu Feb 10 2022 10:47:35 GMT+0100 (CET)","2022","2","10","10","47","35","mf21","21","female","right","100","87","96","1","1","","","","","fixation","","","",""
"479.9999999999709","img/image_stim_f.png","70","image-keyboard-response","78","152762","0.0-9.0-1.34","ws865e","Thu Feb 10 2022 10:47:35 GMT+0100 (CET)","2022","2","10","10","47","35","mf21","21","female","right","100","87","96","1","1","","","","","test","fear","fear","f","true"
"null","<div style=""font-size:60px;"">+</div>","null","html-keyboard-response","79","154273","0.0-9.0-0.35","ws865e","Thu Feb 10 2022 10:47:35 GMT+0100 (CET)","2022","2","10","10","47","35","mf21","21","female","right","100","87","96","1","1","","","","","fixation","","","",""
"472.9999999999709","img/image_stim_h.png","72","image-keyboard-response","80","154748","0.0-9.0-1.35","ws865e","Thu Feb 10 2022 10:47:35 GMT+0100 (CET)","2022","2","10","10","47","35","mf21","21","female","right","100","87","96","1","1","","","","","test","happy","happy","h","true"
