"rt","stimulus","key_press","trial_type","trial_index","time_elapsed","internal_node_id","exp_id","Time","year","month","date","hour","minute","seconds","id","age","Gender","Handedness","mood","fresh","hunger","H_since_Sleep","H_since_Eat","responses","question_order","slider_start","response","test_part","face","word","correct_response","correct"
"2139","<p>Welcome to this experiment on daily rhythms and cognition.</p><p>First you will be asked some questions about yourself.</p><p>Then a short experiment will measure your response time.</p><p>Take the test at different times of the day/night.</p><p>The test is anonymous, but comparing your data across time is important.</p><p>Therefore, please make up and remember a personal ID (two letters+ two numbers).</p><p>Use this ID whenever taking the test.</p><p><strong>Press any key to begin.</strong></p>","32","html-keyboard-response","0","2140","0.0-0.0","xfl6ym","Thu Feb 18 2021 20:32:25 GMT+0200 (Eastern European Standard Time)","2021","2","18","20","32","25","lb78","27","male","left","50","35","60","9","1","","","","","","","","",""
"2944","","","survey-text","1","5088","0.0-1.0","xfl6ym","Thu Feb 18 2021 20:32:25 GMT+0200 (Eastern European Standard Time)","2021","2","18","20","32","25","lb78","27","male","left","50","35","60","9","1","{""Q0"":""lb78""}","","","","","","","",""
"2908","","","survey-text","2","7999","0.0-2.0","xfl6ym","Thu Feb 18 2021 20:32:25 GMT+0200 (Eastern European Standard Time)","2021","2","18","20","32","25","lb78","27","male","left","50","35","60","9","1","{""Q0"":""27""}","","","","","","","",""
"4476","","","survey-multi-select","3","12481","0.0-3.0","xfl6ym","Thu Feb 18 2021 20:32:25 GMT+0200 (Eastern European Standard Time)","2021","2","18","20","32","25","lb78","27","male","left","50","35","60","9","1","{""Gender"":[""male""],""Hand"":[""left""]}","[0,1]","","","","","","",""
"5815","<p>How Sad/Angry or Happy are you right now?</p>","","html-slider-response","4","18299","0.0-4.0","xfl6ym","Thu Feb 18 2021 20:32:25 GMT+0200 (Eastern European Standard Time)","2021","2","18","20","32","25","lb78","27","male","left","50","35","60","9","1","","","50","50","","","","",""
"6908","<p>How Tired/Sleepy/Distracted or Fresh/Awake/Alert are you right now?</p>","","html-slider-response","5","25209","0.0-5.0","xfl6ym","Thu Feb 18 2021 20:32:25 GMT+0200 (Eastern European Standard Time)","2021","2","18","20","32","25","lb78","27","male","left","50","35","60","9","1","","","50","35","","","","",""
"9354","<p>How Hungry or Satiated are you right now?</p>","","html-slider-response","6","34565","0.0-6.0","xfl6ym","Thu Feb 18 2021 20:32:25 GMT+0200 (Eastern European Standard Time)","2021","2","18","20","32","25","lb78","27","male","left","50","35","60","9","1","","","50","60","","","","",""
"17660","","","survey-multi-select","7","52240","0.0-7.0","xfl6ym","Thu Feb 18 2021 20:32:25 GMT+0200 (Eastern European Standard Time)","2021","2","18","20","32","25","lb78","27","male","left","50","35","60","9","1","{""Sleep"":[""9""],""Eat"":[""1""]}","[0,1]","","","","","","",""
"4423","<p>In this experiment, a face and a word will appear in the center of the screen.</p><p>If the face is <strong>happy</strong>, press the letter <strong>H</strong> with <strong>right</strong> index finger.</p><p>If the face is <strong>fearful</strong>, press the letter <strong>F</strong> with <strong>left</strong> index finger.</p><p><strong>Ignore the written words</strong>. Respond as fast as possible while being correct. </p><div style='width: 900px;'><div style='float: left;'><img src='img/stimuli_stroop_happy.png'></img><p class='small'><strong>Press the H key for happy faces</strong></p></div><div class='float: right;'><img src='img/stimuli_stroop_fear.png'></img><p class='small'><strong>Press the F key for faces with fear</strong></p></div></div><p>If the screen turns blank, press <strong>SPACE</strong></p><p><strong>Press any key to begin.</strong></p>","32","html-keyboard-response","8","56665","0.0-8.0","xfl6ym","Thu Feb 18 2021 20:32:25 GMT+0200 (Eastern European Standard Time)","2021","2","18","20","32","25","lb78","27","male","left","50","35","60","9","1","","","","","","","","",""
"null","<div style=""font-size:60px;"">+</div>","null","html-keyboard-response","9","60444","0.0-9.0-0.0","xfl6ym","Thu Feb 18 2021 20:32:25 GMT+0200 (Eastern European Standard Time)","2021","2","18","20","32","25","lb78","27","male","left","50","35","60","9","1","","","","","fixation","","","",""
"1023","img/image_stim_f.png","70","image-keyboard-response","10","61472","0.0-9.0-1.0","xfl6ym","Thu Feb 18 2021 20:32:25 GMT+0200 (Eastern European Standard Time)","2021","2","18","20","32","25","lb78","27","male","left","50","35","60","9","1","","","","","test","fear","fear","f","true"
"null","<div style=""font-size:60px;"">+</div>","null","html-keyboard-response","11","61734","0.0-9.0-0.1","xfl6ym","Thu Feb 18 2021 20:32:25 GMT+0200 (Eastern European Standard Time)","2021","2","18","20","32","25","lb78","27","male","left","50","35","60","9","1","","","","","fixation","","","",""
"693","img/image_stim_h_stroop.png","72","image-keyboard-response","12","62431","0.0-9.0-1.1","xfl6ym","Thu Feb 18 2021 20:32:25 GMT+0200 (Eastern European Standard Time)","2021","2","18","20","32","25","lb78","27","male","left","50","35","60","9","1","","","","","test","happy","fear","h","true"
"null","<div style=""font-size:60px;"">+</div>","null","html-keyboard-response","13","63944","0.0-9.0-0.2","xfl6ym","Thu Feb 18 2021 20:32:25 GMT+0200 (Eastern European Standard Time)","2021","2","18","20","32","25","lb78","27","male","left","50","35","60","9","1","","","","","fixation","","","",""
"625","img/image_stim_f_stroop.png","70","image-keyboard-response","14","64573","0.0-9.0-1.2","xfl6ym","Thu Feb 18 2021 20:32:25 GMT+0200 (Eastern European Standard Time)","2021","2","18","20","32","25","lb78","27","male","left","50","35","60","9","1","","","","","test","fear","happy","f","true"
"null","<div style=""font-size:60px;"">+</div>","null","html-keyboard-response","15","65343","0.0-9.0-0.3","xfl6ym","Thu Feb 18 2021 20:32:25 GMT+0200 (Eastern European Standard Time)","2021","2","18","20","32","25","lb78","27","male","left","50","35","60","9","1","","","","","fixation","","","",""
"560","img/image_stim_h.png","72","image-keyboard-response","16","65906","0.0-9.0-1.3","xfl6ym","Thu Feb 18 2021 20:32:25 GMT+0200 (Eastern European Standard Time)","2021","2","18","20","32","25","lb78","27","male","left","50","35","60","9","1","","","","","test","happy","happy","h","true"
"null","<div style=""font-size:60px;"">+</div>","null","html-keyboard-response","17","67164","0.0-9.0-0.4","xfl6ym","Thu Feb 18 2021 20:32:25 GMT+0200 (Eastern European Standard Time)","2021","2","18","20","32","25","lb78","27","male","left","50","35","60","9","1","","","","","fixation","","","",""
"441","img/image_stim_h.png","72","image-keyboard-response","18","67607","0.0-9.0-1.4","xfl6ym","Thu Feb 18 2021 20:32:25 GMT+0200 (Eastern European Standard Time)","2021","2","18","20","32","25","lb78","27","male","left","50","35","60","9","1","","","","","test","happy","happy","h","true"
"null","<div style=""font-size:60px;"">+</div>","null","html-keyboard-response","19","69364","0.0-9.0-0.5","xfl6ym","Thu Feb 18 2021 20:32:25 GMT+0200 (Eastern European Standard Time)","2021","2","18","20","32","25","lb78","27","male","left","50","35","60","9","1","","","","","fixation","","","",""
"554","img/image_stim_f_stroop.png","70","image-keyboard-response","20","69919","0.0-9.0-1.5","xfl6ym","Thu Feb 18 2021 20:32:25 GMT+0200 (Eastern European Standard Time)","2021","2","18","20","32","25","lb78","27","male","left","50","35","60","9","1","","","","","test","fear","happy","f","true"
"null","<div style=""font-size:60px;"">+</div>","null","html-keyboard-response","21","70423","0.0-9.0-0.6","xfl6ym","Thu Feb 18 2021 20:32:25 GMT+0200 (Eastern European Standard Time)","2021","2","18","20","32","25","lb78","27","male","left","50","35","60","9","1","","","","","fixation","","","",""
"517","img/image_stim_f.png","70","image-keyboard-response","22","70941","0.0-9.0-1.6","xfl6ym","Thu Feb 18 2021 20:32:25 GMT+0200 (Eastern European Standard Time)","2021","2","18","20","32","25","lb78","27","male","left","50","35","60","9","1","","","","","test","fear","fear","f","true"
"null","<div style=""font-size:60px;"">+</div>","null","html-keyboard-response","23","71703","0.0-9.0-0.7","xfl6ym","Thu Feb 18 2021 20:32:25 GMT+0200 (Eastern European Standard Time)","2021","2","18","20","32","25","lb78","27","male","left","50","35","60","9","1","","","","","fixation","","","",""
"675","img/image_stim_h_stroop.png","72","image-keyboard-response","24","72380","0.0-9.0-1.7","xfl6ym","Thu Feb 18 2021 20:32:25 GMT+0200 (Eastern European Standard Time)","2021","2","18","20","32","25","lb78","27","male","left","50","35","60","9","1","","","","","test","happy","fear","h","true"
"null","<div style=""font-size:60px;"">+</div>","null","html-keyboard-response","25","74384","0.0-9.0-0.8","xfl6ym","Thu Feb 18 2021 20:32:25 GMT+0200 (Eastern European Standard Time)","2021","2","18","20","32","25","lb78","27","male","left","50","35","60","9","1","","","","","fixation","","","",""
"561","img/image_stim_h_stroop.png","72","image-keyboard-response","26","74946","0.0-9.0-1.8","xfl6ym","Thu Feb 18 2021 20:32:25 GMT+0200 (Eastern European Standard Time)","2021","2","18","20","32","25","lb78","27","male","left","50","35","60","9","1","","","","","test","happy","fear","h","true"
"null","<div style=""font-size:60px;"">+</div>","null","html-keyboard-response","27","76704","0.0-9.0-0.9","xfl6ym","Thu Feb 18 2021 20:32:25 GMT+0200 (Eastern European Standard Time)","2021","2","18","20","32","25","lb78","27","male","left","50","35","60","9","1","","","","","fixation","","","",""
"456","img/image_stim_h.png","72","image-keyboard-response","28","77161","0.0-9.0-1.9","xfl6ym","Thu Feb 18 2021 20:32:25 GMT+0200 (Eastern European Standard Time)","2021","2","18","20","32","25","lb78","27","male","left","50","35","60","9","1","","","","","test","happy","happy","h","true"
"null","<div style=""font-size:60px;"">+</div>","null","html-keyboard-response","29","78923","0.0-9.0-0.10","xfl6ym","Thu Feb 18 2021 20:32:25 GMT+0200 (Eastern European Standard Time)","2021","2","18","20","32","25","lb78","27","male","left","50","35","60","9","1","","","","","fixation","","","",""
"384","img/image_stim_f.png","70","image-keyboard-response","30","79310","0.0-9.0-1.10","xfl6ym","Thu Feb 18 2021 20:32:25 GMT+0200 (Eastern European Standard Time)","2021","2","18","20","32","25","lb78","27","male","left","50","35","60","9","1","","","","","test","fear","fear","f","true"
"null","<div style=""font-size:60px;"">+</div>","null","html-keyboard-response","31","80820","0.0-9.0-0.11","xfl6ym","Thu Feb 18 2021 20:32:25 GMT+0200 (Eastern European Standard Time)","2021","2","18","20","32","25","lb78","27","male","left","50","35","60","9","1","","","","","fixation","","","",""
"632","img/image_stim_f_stroop.png","70","image-keyboard-response","32","81453","0.0-9.0-1.11","xfl6ym","Thu Feb 18 2021 20:32:25 GMT+0200 (Eastern European Standard Time)","2021","2","18","20","32","25","lb78","27","male","left","50","35","60","9","1","","","","","test","fear","happy","f","true"
"null","<div style=""font-size:60px;"">+</div>","null","html-keyboard-response","33","82724","0.0-9.0-0.12","xfl6ym","Thu Feb 18 2021 20:32:25 GMT+0200 (Eastern European Standard Time)","2021","2","18","20","32","25","lb78","27","male","left","50","35","60","9","1","","","","","fixation","","","",""
"465","img/image_stim_f_stroop.png","70","image-keyboard-response","34","83189","0.0-9.0-1.12","xfl6ym","Thu Feb 18 2021 20:32:25 GMT+0200 (Eastern European Standard Time)","2021","2","18","20","32","25","lb78","27","male","left","50","35","60","9","1","","","","","test","fear","happy","f","true"
"null","<div style=""font-size:60px;"">+</div>","null","html-keyboard-response","35","83703","0.0-9.0-0.13","xfl6ym","Thu Feb 18 2021 20:32:25 GMT+0200 (Eastern European Standard Time)","2021","2","18","20","32","25","lb78","27","male","left","50","35","60","9","1","","","","","fixation","","","",""
"454","img/image_stim_f.png","70","image-keyboard-response","36","84160","0.0-9.0-1.13","xfl6ym","Thu Feb 18 2021 20:32:25 GMT+0200 (Eastern European Standard Time)","2021","2","18","20","32","25","lb78","27","male","left","50","35","60","9","1","","","","","test","fear","fear","f","true"
"null","<div style=""font-size:60px;"">+</div>","null","html-keyboard-response","37","86164","0.0-9.0-0.14","xfl6ym","Thu Feb 18 2021 20:32:25 GMT+0200 (Eastern European Standard Time)","2021","2","18","20","32","25","lb78","27","male","left","50","35","60","9","1","","","","","fixation","","","",""
"504","img/image_stim_h_stroop.png","72","image-keyboard-response","38","86669","0.0-9.0-1.14","xfl6ym","Thu Feb 18 2021 20:32:25 GMT+0200 (Eastern European Standard Time)","2021","2","18","20","32","25","lb78","27","male","left","50","35","60","9","1","","","","","test","happy","fear","h","true"
"null","<div style=""font-size:60px;"">+</div>","null","html-keyboard-response","39","86924","0.0-9.0-0.15","xfl6ym","Thu Feb 18 2021 20:32:25 GMT+0200 (Eastern European Standard Time)","2021","2","18","20","32","25","lb78","27","male","left","50","35","60","9","1","","","","","fixation","","","",""
"508","img/image_stim_h.png","72","image-keyboard-response","40","87435","0.0-9.0-1.15","xfl6ym","Thu Feb 18 2021 20:32:25 GMT+0200 (Eastern European Standard Time)","2021","2","18","20","32","25","lb78","27","male","left","50","35","60","9","1","","","","","test","happy","happy","h","true"
"null","<div style=""font-size:60px;"">+</div>","null","html-keyboard-response","41","87944","0.0-9.0-0.16","xfl6ym","Thu Feb 18 2021 20:32:25 GMT+0200 (Eastern European Standard Time)","2021","2","18","20","32","25","lb78","27","male","left","50","35","60","9","1","","","","","fixation","","","",""
"542","img/image_stim_f.png","70","image-keyboard-response","42","88488","0.0-9.0-1.16","xfl6ym","Thu Feb 18 2021 20:32:25 GMT+0200 (Eastern European Standard Time)","2021","2","18","20","32","25","lb78","27","male","left","50","35","60","9","1","","","","","test","fear","fear","f","true"
"null","<div style=""font-size:60px;"">+</div>","null","html-keyboard-response","43","90494","0.0-9.0-0.17","xfl6ym","Thu Feb 18 2021 20:32:25 GMT+0200 (Eastern European Standard Time)","2021","2","18","20","32","25","lb78","27","male","left","50","35","60","9","1","","","","","fixation","","","",""
"520","img/image_stim_h_stroop.png","72","image-keyboard-response","44","91015","0.0-9.0-1.17","xfl6ym","Thu Feb 18 2021 20:32:25 GMT+0200 (Eastern European Standard Time)","2021","2","18","20","32","25","lb78","27","male","left","50","35","60","9","1","","","","","test","happy","fear","h","true"
"null","<div style=""font-size:60px;"">+</div>","null","html-keyboard-response","45","91534","0.0-9.0-0.18","xfl6ym","Thu Feb 18 2021 20:32:25 GMT+0200 (Eastern European Standard Time)","2021","2","18","20","32","25","lb78","27","male","left","50","35","60","9","1","","","","","fixation","","","",""
"580","img/image_stim_f_stroop.png","70","image-keyboard-response","46","92115","0.0-9.0-1.18","xfl6ym","Thu Feb 18 2021 20:32:25 GMT+0200 (Eastern European Standard Time)","2021","2","18","20","32","25","lb78","27","male","left","50","35","60","9","1","","","","","test","fear","happy","f","true"
"null","<div style=""font-size:60px;"">+</div>","null","html-keyboard-response","47","92884","0.0-9.0-0.19","xfl6ym","Thu Feb 18 2021 20:32:25 GMT+0200 (Eastern European Standard Time)","2021","2","18","20","32","25","lb78","27","male","left","50","35","60","9","1","","","","","fixation","","","",""
"515","img/image_stim_h.png","72","image-keyboard-response","48","93400","0.0-9.0-1.19","xfl6ym","Thu Feb 18 2021 20:32:25 GMT+0200 (Eastern European Standard Time)","2021","2","18","20","32","25","lb78","27","male","left","50","35","60","9","1","","","","","test","happy","happy","h","true"
"null","<div style=""font-size:60px;"">+</div>","null","html-keyboard-response","49","93664","0.0-9.0-0.20","xfl6ym","Thu Feb 18 2021 20:32:25 GMT+0200 (Eastern European Standard Time)","2021","2","18","20","32","25","lb78","27","male","left","50","35","60","9","1","","","","","fixation","","","",""
"552","img/image_stim_h_stroop.png","72","image-keyboard-response","50","94216","0.0-9.0-1.20","xfl6ym","Thu Feb 18 2021 20:32:25 GMT+0200 (Eastern European Standard Time)","2021","2","18","20","32","25","lb78","27","male","left","50","35","60","9","1","","","","","test","happy","fear","h","true"
"null","<div style=""font-size:60px;"">+</div>","null","html-keyboard-response","51","94733","0.0-9.0-0.21","xfl6ym","Thu Feb 18 2021 20:32:25 GMT+0200 (Eastern European Standard Time)","2021","2","18","20","32","25","lb78","27","male","left","50","35","60","9","1","","","","","fixation","","","",""
"503","img/image_stim_f_stroop.png","70","image-keyboard-response","52","95237","0.0-9.0-1.21","xfl6ym","Thu Feb 18 2021 20:32:25 GMT+0200 (Eastern European Standard Time)","2021","2","18","20","32","25","lb78","27","male","left","50","35","60","9","1","","","","","test","fear","happy","f","true"
"null","<div style=""font-size:60px;"">+</div>","null","html-keyboard-response","53","96253","0.0-9.0-0.22","xfl6ym","Thu Feb 18 2021 20:32:25 GMT+0200 (Eastern European Standard Time)","2021","2","18","20","32","25","lb78","27","male","left","50","35","60","9","1","","","","","fixation","","","",""
"516","img/image_stim_h.png","72","image-keyboard-response","54","96772","0.0-9.0-1.22","xfl6ym","Thu Feb 18 2021 20:32:25 GMT+0200 (Eastern European Standard Time)","2021","2","18","20","32","25","lb78","27","male","left","50","35","60","9","1","","","","","test","happy","happy","h","true"
"null","<div style=""font-size:60px;"">+</div>","null","html-keyboard-response","55","97783","0.0-9.0-0.23","xfl6ym","Thu Feb 18 2021 20:32:25 GMT+0200 (Eastern European Standard Time)","2021","2","18","20","32","25","lb78","27","male","left","50","35","60","9","1","","","","","fixation","","","",""
"515","img/image_stim_f.png","70","image-keyboard-response","56","98300","0.0-9.0-1.23","xfl6ym","Thu Feb 18 2021 20:32:25 GMT+0200 (Eastern European Standard Time)","2021","2","18","20","32","25","lb78","27","male","left","50","35","60","9","1","","","","","test","fear","fear","f","true"
"null","<div style=""font-size:60px;"">+</div>","null","html-keyboard-response","57","98813","0.0-9.0-0.24","xfl6ym","Thu Feb 18 2021 20:32:25 GMT+0200 (Eastern European Standard Time)","2021","2","18","20","32","25","lb78","27","male","left","50","35","60","9","1","","","","","fixation","","","",""
"760","img/image_stim_h_stroop.png","72","image-keyboard-response","58","99575","0.0-9.0-1.24","xfl6ym","Thu Feb 18 2021 20:32:25 GMT+0200 (Eastern European Standard Time)","2021","2","18","20","32","25","lb78","27","male","left","50","35","60","9","1","","","","","test","happy","fear","h","true"
"null","<div style=""font-size:60px;"">+</div>","null","html-keyboard-response","59","100344","0.0-9.0-0.25","xfl6ym","Thu Feb 18 2021 20:32:25 GMT+0200 (Eastern European Standard Time)","2021","2","18","20","32","25","lb78","27","male","left","50","35","60","9","1","","","","","fixation","","","",""
"661","img/image_stim_h.png","72","image-keyboard-response","60","101006","0.0-9.0-1.25","xfl6ym","Thu Feb 18 2021 20:32:25 GMT+0200 (Eastern European Standard Time)","2021","2","18","20","32","25","lb78","27","male","left","50","35","60","9","1","","","","","test","happy","happy","h","true"
"null","<div style=""font-size:60px;"">+</div>","null","html-keyboard-response","61","101264","0.0-9.0-0.26","xfl6ym","Thu Feb 18 2021 20:32:25 GMT+0200 (Eastern European Standard Time)","2021","2","18","20","32","25","lb78","27","male","left","50","35","60","9","1","","","","","fixation","","","",""
"683","img/image_stim_f.png","70","image-keyboard-response","62","101948","0.0-9.0-1.26","xfl6ym","Thu Feb 18 2021 20:32:25 GMT+0200 (Eastern European Standard Time)","2021","2","18","20","32","25","lb78","27","male","left","50","35","60","9","1","","","","","test","fear","fear","f","true"
"null","<div style=""font-size:60px;"">+</div>","null","html-keyboard-response","63","102203","0.0-9.0-0.27","xfl6ym","Thu Feb 18 2021 20:32:25 GMT+0200 (Eastern European Standard Time)","2021","2","18","20","32","25","lb78","27","male","left","50","35","60","9","1","","","","","fixation","","","",""
"624","img/image_stim_f_stroop.png","70","image-keyboard-response","64","102829","0.0-9.0-1.27","xfl6ym","Thu Feb 18 2021 20:32:25 GMT+0200 (Eastern European Standard Time)","2021","2","18","20","32","25","lb78","27","male","left","50","35","60","9","1","","","","","test","fear","happy","f","true"
"null","<div style=""font-size:60px;"">+</div>","null","html-keyboard-response","65","103584","0.0-9.0-0.28","xfl6ym","Thu Feb 18 2021 20:32:25 GMT+0200 (Eastern European Standard Time)","2021","2","18","20","32","25","lb78","27","male","left","50","35","60","9","1","","","","","fixation","","","",""
"565","img/image_stim_f_stroop.png","70","image-keyboard-response","66","104150","0.0-9.0-1.28","xfl6ym","Thu Feb 18 2021 20:32:25 GMT+0200 (Eastern European Standard Time)","2021","2","18","20","32","25","lb78","27","male","left","50","35","60","9","1","","","","","test","fear","happy","f","true"
"null","<div style=""font-size:60px;"">+</div>","null","html-keyboard-response","67","105164","0.0-9.0-0.29","xfl6ym","Thu Feb 18 2021 20:32:25 GMT+0200 (Eastern European Standard Time)","2021","2","18","20","32","25","lb78","27","male","left","50","35","60","9","1","","","","","fixation","","","",""
"460","img/image_stim_h.png","72","image-keyboard-response","68","105626","0.0-9.0-1.29","xfl6ym","Thu Feb 18 2021 20:32:25 GMT+0200 (Eastern European Standard Time)","2021","2","18","20","32","25","lb78","27","male","left","50","35","60","9","1","","","","","test","happy","happy","h","true"
"null","<div style=""font-size:60px;"">+</div>","null","html-keyboard-response","69","107143","0.0-9.0-0.30","xfl6ym","Thu Feb 18 2021 20:32:25 GMT+0200 (Eastern European Standard Time)","2021","2","18","20","32","25","lb78","27","male","left","50","35","60","9","1","","","","","fixation","","","",""
"639","img/image_stim_h_stroop.png","72","image-keyboard-response","70","107783","0.0-9.0-1.30","xfl6ym","Thu Feb 18 2021 20:32:25 GMT+0200 (Eastern European Standard Time)","2021","2","18","20","32","25","lb78","27","male","left","50","35","60","9","1","","","","","test","happy","fear","h","true"
"null","<div style=""font-size:60px;"">+</div>","null","html-keyboard-response","71","109301","0.0-9.0-0.31","xfl6ym","Thu Feb 18 2021 20:32:25 GMT+0200 (Eastern European Standard Time)","2021","2","18","20","32","25","lb78","27","male","left","50","35","60","9","1","","","","","fixation","","","",""
"594","img/image_stim_f.png","70","image-keyboard-response","72","109896","0.0-9.0-1.31","xfl6ym","Thu Feb 18 2021 20:32:25 GMT+0200 (Eastern European Standard Time)","2021","2","18","20","32","25","lb78","27","male","left","50","35","60","9","1","","","","","test","fear","fear","f","true"
"null","<div style=""font-size:60px;"">+</div>","null","html-keyboard-response","73","110904","0.0-9.0-0.32","xfl6ym","Thu Feb 18 2021 20:32:25 GMT+0200 (Eastern European Standard Time)","2021","2","18","20","32","25","lb78","27","male","left","50","35","60","9","1","","","","","fixation","","","",""
"501","img/image_stim_f_stroop.png","70","image-keyboard-response","74","111406","0.0-9.0-1.32","xfl6ym","Thu Feb 18 2021 20:32:25 GMT+0200 (Eastern European Standard Time)","2021","2","18","20","32","25","lb78","27","male","left","50","35","60","9","1","","","","","test","fear","happy","f","true"
"null","<div style=""font-size:60px;"">+</div>","null","html-keyboard-response","75","113163","0.0-9.0-0.33","xfl6ym","Thu Feb 18 2021 20:32:25 GMT+0200 (Eastern European Standard Time)","2021","2","18","20","32","25","lb78","27","male","left","50","35","60","9","1","","","","","fixation","","","",""
"883","img/image_stim_f.png","70","image-keyboard-response","76","114048","0.0-9.0-1.33","xfl6ym","Thu Feb 18 2021 20:32:25 GMT+0200 (Eastern European Standard Time)","2021","2","18","20","32","25","lb78","27","male","left","50","35","60","9","1","","","","","test","fear","fear","f","true"
"null","<div style=""font-size:60px;"">+</div>","null","html-keyboard-response","77","115803","0.0-9.0-0.34","xfl6ym","Thu Feb 18 2021 20:32:25 GMT+0200 (Eastern European Standard Time)","2021","2","18","20","32","25","lb78","27","male","left","50","35","60","9","1","","","","","fixation","","","",""
"619","img/image_stim_h.png","72","image-keyboard-response","78","116425","0.0-9.0-1.34","xfl6ym","Thu Feb 18 2021 20:32:25 GMT+0200 (Eastern European Standard Time)","2021","2","18","20","32","25","lb78","27","male","left","50","35","60","9","1","","","","","test","happy","happy","h","true"
"null","<div style=""font-size:60px;"">+</div>","null","html-keyboard-response","79","117693","0.0-9.0-0.35","xfl6ym","Thu Feb 18 2021 20:32:25 GMT+0200 (Eastern European Standard Time)","2021","2","18","20","32","25","lb78","27","male","left","50","35","60","9","1","","","","","fixation","","","",""
"525","img/image_stim_h_stroop.png","72","image-keyboard-response","80","118219","0.0-9.0-1.35","xfl6ym","Thu Feb 18 2021 20:32:25 GMT+0200 (Eastern European Standard Time)","2021","2","18","20","32","25","lb78","27","male","left","50","35","60","9","1","","","","","test","happy","fear","h","true"
