"rt","stimulus","key_press","trial_type","trial_index","time_elapsed","internal_node_id","exp_id","Time","year","month","date","hour","minute","seconds","id","age","Gender","Handedness","mood","fresh","hunger","H_since_Sleep","H_since_Eat","responses","question_order","slider_start","response","test_part","face","word","correct_response","correct"
"2504","<p>Welcome to this experiment on daily rhythms and cognition.</p><p>First you will be asked some questions about yourself.</p><p>Then a short experiment will measure your response time.</p><p>Take the test at different times of the day/night.</p><p>The test is anonymous, but comparing your data across time is important.</p><p>Therefore, please make up and remember a personal ID (two letters+ two numbers).</p><p>Use this ID whenever taking the test.</p><p><strong>Press any key to begin.</strong></p>","32","html-keyboard-response","0","2507","0.0-0.0","95z4jm","Mon Feb 08 2021 10:58:12 GMT+0100 (Central European Standard Time)","2021","2","8","10","58","12","","","other","No difference","50","50","50","9","9","","","","","","","","",""
"1253","","","survey-text","1","3767","0.0-1.0","95z4jm","Mon Feb 08 2021 10:58:12 GMT+0100 (Central European Standard Time)","2021","2","8","10","58","12","","","other","No difference","50","50","50","9","9","{""Q0"":""""}","","","","","","","",""
"428","","","survey-text","2","4201","0.0-2.0","95z4jm","Mon Feb 08 2021 10:58:12 GMT+0100 (Central European Standard Time)","2021","2","8","10","58","12","","","other","No difference","50","50","50","9","9","{""Q0"":""""}","","","","","","","",""
"2940","","","survey-multi-select","3","7149","0.0-3.0","95z4jm","Mon Feb 08 2021 10:58:12 GMT+0100 (Central European Standard Time)","2021","2","8","10","58","12","","","other","No difference","50","50","50","9","9","{""Gender"":[""other""],""Hand"":[""No difference""]}","[0,1]","","","","","","",""
"505","<p>How Sad/Angry or Happy are you right now?</p>","","html-slider-response","4","7657","0.0-4.0","95z4jm","Mon Feb 08 2021 10:58:12 GMT+0100 (Central European Standard Time)","2021","2","8","10","58","12","","","other","No difference","50","50","50","9","9","","","50","50","","","","",""
"298","<p>How Tired/Sleepy/Distracted or Fresh/Awake/Alert are you right now?</p>","","html-slider-response","5","7957","0.0-5.0","95z4jm","Mon Feb 08 2021 10:58:12 GMT+0100 (Central European Standard Time)","2021","2","8","10","58","12","","","other","No difference","50","50","50","9","9","","","50","50","","","","",""
"322","<p>How Hungry or Satiated are you right now?</p>","","html-slider-response","6","8281","0.0-6.0","95z4jm","Mon Feb 08 2021 10:58:12 GMT+0100 (Central European Standard Time)","2021","2","8","10","58","12","","","other","No difference","50","50","50","9","9","","","50","50","","","","",""
"2164","","","survey-multi-select","7","10487","0.0-7.0","95z4jm","Mon Feb 08 2021 10:58:12 GMT+0100 (Central European Standard Time)","2021","2","8","10","58","12","","","other","No difference","50","50","50","9","9","{""Sleep"":[""9""],""Eat"":[""9""]}","[0,1]","","","","","","",""
"757","<p>In this experiment, a face and a word will appear in the center of the screen.</p><p>If the face is <strong>happy</strong>, press the letter <strong>H</strong> with <strong>right</strong> index finger.</p><p>If the face is <strong>fearful</strong>, press the letter <strong>F</strong> with <strong>left</strong> index finger.</p><p><strong>Ignore the written words</strong>. Respond as fast as possible while being correct. </p><div style='width: 900px;'><div style='float: left;'><img src='img/stimuli_stroop_happy.png'></img><p class='small'><strong>Press the H key for happy faces</strong></p></div><div class='float: right;'><img src='img/stimuli_stroop_fear.png'></img><p class='small'><strong>Press the F key for faces with fear</strong></p></div></div><p>If the screen turns blank, press <strong>SPACE</strong></p><p><strong>Press any key to begin.</strong></p>","32","html-keyboard-response","8","11250","0.0-8.0","95z4jm","Mon Feb 08 2021 10:58:12 GMT+0100 (Central European Standard Time)","2021","2","8","10","58","12","","","other","No difference","50","50","50","9","9","","","","","","","","",""
"null","<div style=""font-size:60px;"">+</div>","null","html-keyboard-response","9","13508","0.0-9.0-0.0","95z4jm","Mon Feb 08 2021 10:58:12 GMT+0100 (Central European Standard Time)","2021","2","8","10","58","12","","","other","No difference","50","50","50","9","9","","","","","fixation","","","",""
"1864","img/party.jpg","72","image-keyboard-response","10","15594","0.0-9.0-1.0","95z4jm","Mon Feb 08 2021 10:58:12 GMT+0100 (Central European Standard Time)","2021","2","8","10","58","12","","","other","No difference","50","50","50","9","9","","","","","test","happy","happy","h","true"
"null","<div style=""font-size:60px;"">+</div>","null","html-keyboard-response","11","16103","0.0-9.0-0.1","95z4jm","Mon Feb 08 2021 10:58:12 GMT+0100 (Central European Standard Time)","2021","2","8","10","58","12","","","other","No difference","50","50","50","9","9","","","","","fixation","","","",""
"687","img/party.jpg","72","image-keyboard-response","12","16858","0.0-9.0-1.1","95z4jm","Mon Feb 08 2021 10:58:12 GMT+0100 (Central European Standard Time)","2021","2","8","10","58","12","","","other","No difference","50","50","50","9","9","","","","","test","fear","happy","f","false"
"null","<div style=""font-size:60px;"">+</div>","null","html-keyboard-response","13","17614","0.0-9.0-0.2","95z4jm","Mon Feb 08 2021 10:58:12 GMT+0100 (Central European Standard Time)","2021","2","8","10","58","12","","","other","No difference","50","50","50","9","9","","","","","fixation","","","",""
"445","img/party.jpg","72","image-keyboard-response","14","18103","0.0-9.0-1.2","95z4jm","Mon Feb 08 2021 10:58:12 GMT+0100 (Central European Standard Time)","2021","2","8","10","58","12","","","other","No difference","50","50","50","9","9","","","","","test","fear","fear","f","false"
"null","<div style=""font-size:60px;"">+</div>","null","html-keyboard-response","15","19360","0.0-9.0-0.3","95z4jm","Mon Feb 08 2021 10:58:12 GMT+0100 (Central European Standard Time)","2021","2","8","10","58","12","","","other","No difference","50","50","50","9","9","","","","","fixation","","","",""
"430","img/party.jpg","72","image-keyboard-response","16","19845","0.0-9.0-1.3","95z4jm","Mon Feb 08 2021 10:58:12 GMT+0100 (Central European Standard Time)","2021","2","8","10","58","12","","","other","No difference","50","50","50","9","9","","","","","test","happy","fear","h","true"
"null","<div style=""font-size:60px;"">+</div>","null","html-keyboard-response","17","21850","0.0-9.0-0.4","95z4jm","Mon Feb 08 2021 10:58:12 GMT+0100 (Central European Standard Time)","2021","2","8","10","58","12","","","other","No difference","50","50","50","9","9","","","","","fixation","","","",""
"869","img/party.jpg","72","image-keyboard-response","18","22774","0.0-9.0-1.4","95z4jm","Mon Feb 08 2021 10:58:12 GMT+0100 (Central European Standard Time)","2021","2","8","10","58","12","","","other","No difference","50","50","50","9","9","","","","","test","fear","happy","f","false"
"null","<div style=""font-size:60px;"">+</div>","null","html-keyboard-response","19","23530","0.0-9.0-0.5","95z4jm","Mon Feb 08 2021 10:58:12 GMT+0100 (Central European Standard Time)","2021","2","8","10","58","12","","","other","No difference","50","50","50","9","9","","","","","fixation","","","",""
"549","img/party.jpg","72","image-keyboard-response","20","24173","0.0-9.0-1.5","95z4jm","Mon Feb 08 2021 10:58:12 GMT+0100 (Central European Standard Time)","2021","2","8","10","58","12","","","other","No difference","50","50","50","9","9","","","","","test","happy","happy","h","true"
