"rt","stimulus","key_press","trial_type","trial_index","time_elapsed","internal_node_id","exp_id","Time","year","month","date","hour","minute","seconds","id","age","Gender","Handedness","mood","fresh","hunger","H_since_Sleep","H_since_Eat","responses","question_order","slider_start","response","test_part","face","word","correct_response","correct"
"1896.4949999935925","<p>Welcome to this experiment on daily rhythms and cognition.</p><p>First you will be asked some questions about yourself.</p><p>Then a short experiment will measure your response time.</p><p>Take the test at different times of the day/night.</p><p>The test is anonymous, but comparing your data across time is important.</p><p>Therefore, please make up and remember a personal ID (two letters+ two numbers).</p><p>Use this ID whenever taking the test.</p><p><strong>Press any key to begin.</strong></p>","32","html-keyboard-response","0","1899","0.0-0.0","c51dht","Sun Feb 07 2021 22:05:38 GMT+0100 (Centraleuropæisk normaltid)","2021","2","7","22","5","38","LA80","40","female","right","41","15","100","15","0","","","","","","","","",""
"6081.8350000772625","","","survey-text","1","7988","0.0-1.0","c51dht","Sun Feb 07 2021 22:05:38 GMT+0100 (Centraleuropæisk normaltid)","2021","2","7","22","5","38","LA80","40","female","right","41","15","100","15","0","{""Q0"":""LA80""}","","","","","","","",""
"5007.320000091568","","","survey-text","2","13000","0.0-2.0","c51dht","Sun Feb 07 2021 22:05:38 GMT+0100 (Centraleuropæisk normaltid)","2021","2","7","22","5","38","LA80","40","female","right","41","15","100","15","0","{""Q0"":""40""}","","","","","","","",""
"5063.774999929592","","","survey-multi-select","3","18069","0.0-3.0","c51dht","Sun Feb 07 2021 22:05:38 GMT+0100 (Centraleuropæisk normaltid)","2021","2","7","22","5","38","LA80","40","female","right","41","15","100","15","0","{""Gender"":[""female""],""Hand"":[""right""]}","[0,1]","","","","","","",""
"12938.955000136048","<p>How Sad/Angry or Happy are you right now?</p>","","html-slider-response","4","31010","0.0-4.0","c51dht","Sun Feb 07 2021 22:05:38 GMT+0100 (Centraleuropæisk normaltid)","2021","2","7","22","5","38","LA80","40","female","right","41","15","100","15","0","","","50","41","","","","",""
"4077.5399999693036","<p>How Tired/Sleepy/Distracted or Fresh/Awake/Alert are you right now?</p>","","html-slider-response","5","35089","0.0-5.0","c51dht","Sun Feb 07 2021 22:05:38 GMT+0100 (Centraleuropæisk normaltid)","2021","2","7","22","5","38","LA80","40","female","right","41","15","100","15","0","","","50","15","","","","",""
"5004.8900002148","<p>How Hungry or Satiated are you right now?</p>","","html-slider-response","6","40095","0.0-6.0","c51dht","Sun Feb 07 2021 22:05:38 GMT+0100 (Centraleuropæisk normaltid)","2021","2","7","22","5","38","LA80","40","female","right","41","15","100","15","0","","","50","100","","","","",""
"7971.4399999938905","","","survey-multi-select","7","48081","0.0-7.0","c51dht","Sun Feb 07 2021 22:05:38 GMT+0100 (Centraleuropæisk normaltid)","2021","2","7","22","5","38","LA80","40","female","right","41","15","100","15","0","{""Sleep"":[""15""],""Eat"":[""0""]}","[0,1]","","","","","","",""
"2377.714999951422","<p>In this experiment, a face and a word will appear in the center of the screen.</p><p>If the face is <strong>happy</strong>, press the letter <strong>H</strong> with <strong>right</strong> index finger.</p><p>If the face is <strong>fearful</strong>, press the letter <strong>F</strong> with <strong>left</strong> index finger.</p><p><strong>Ignore the written words</strong>. Respond as fast as possible while being correct. </p><div style='width: 900px;'><div style='float: left;'><img src='img/stimuli_stroop_happy.png'></img><p class='small'><strong>Press the H key for happy faces</strong></p></div><div class='float: right;'><img src='img/stimuli_stroop_fear.png'></img><p class='small'><strong>Press the F key for faces with fear</strong></p></div></div><p>If the screen turns blank, press <strong>SPACE</strong></p><p><strong>Press any key to begin.</strong></p>","32","html-keyboard-response","8","50461","0.0-8.0","c51dht","Sun Feb 07 2021 22:05:38 GMT+0100 (Centraleuropæisk normaltid)","2021","2","7","22","5","38","LA80","40","female","right","41","15","100","15","0","","","","","","","","",""
"null","<div style=""font-size:60px;"">+</div>","null","html-keyboard-response","9","52974","0.0-9.0-0.0","c51dht","Sun Feb 07 2021 22:05:38 GMT+0100 (Centraleuropæisk normaltid)","2021","2","7","22","5","38","LA80","40","female","right","41","15","100","15","0","","","","","fixation","","","",""
"50.324999960139394","img/image_stim_h_stroop.png","32","image-keyboard-response","10","53026","0.0-9.0-1.0","c51dht","Sun Feb 07 2021 22:05:38 GMT+0100 (Centraleuropæisk normaltid)","2021","2","7","22","5","38","LA80","40","female","right","41","15","100","15","0","","","","","test","happy","fear","h","false"
"null","<div style=""font-size:60px;"">+</div>","null","html-keyboard-response","11","53284","0.0-9.0-0.1","c51dht","Sun Feb 07 2021 22:05:38 GMT+0100 (Centraleuropæisk normaltid)","2021","2","7","22","5","38","LA80","40","female","right","41","15","100","15","0","","","","","fixation","","","",""
"1598.9350001327693","img/image_stim_f.png","32","image-keyboard-response","12","54884","0.0-9.0-1.1","c51dht","Sun Feb 07 2021 22:05:38 GMT+0100 (Centraleuropæisk normaltid)","2021","2","7","22","5","38","LA80","40","female","right","41","15","100","15","0","","","","","test","fear","fear","f","false"
"null","<div style=""font-size:60px;"">+</div>","null","html-keyboard-response","13","56888","0.0-9.0-0.2","c51dht","Sun Feb 07 2021 22:05:38 GMT+0100 (Centraleuropæisk normaltid)","2021","2","7","22","5","38","LA80","40","female","right","41","15","100","15","0","","","","","fixation","","","",""
"null","img/image_stim_f_stroop.png","null","image-keyboard-response","14","61894","0.0-9.0-1.2","c51dht","Sun Feb 07 2021 22:05:38 GMT+0100 (Centraleuropæisk normaltid)","2021","2","7","22","5","38","LA80","40","female","right","41","15","100","15","0","","","","","test","fear","happy","f","false"
"null","<div style=""font-size:60px;"">+</div>","null","html-keyboard-response","15","62900","0.0-9.0-0.3","c51dht","Sun Feb 07 2021 22:05:38 GMT+0100 (Centraleuropæisk normaltid)","2021","2","7","22","5","38","LA80","40","female","right","41","15","100","15","0","","","","","fixation","","","",""
"null","img/image_stim_h.png","null","image-keyboard-response","16","67909","0.0-9.0-1.3","c51dht","Sun Feb 07 2021 22:05:38 GMT+0100 (Centraleuropæisk normaltid)","2021","2","7","22","5","38","LA80","40","female","right","41","15","100","15","0","","","","","test","happy","happy","h","false"
"null","<div style=""font-size:60px;"">+</div>","null","html-keyboard-response","17","69417","0.0-9.0-0.4","c51dht","Sun Feb 07 2021 22:05:38 GMT+0100 (Centraleuropæisk normaltid)","2021","2","7","22","5","38","LA80","40","female","right","41","15","100","15","0","","","","","fixation","","","",""
"1232.8399999532849","img/image_stim_h.png","72","image-keyboard-response","18","70652","0.0-9.0-1.4","c51dht","Sun Feb 07 2021 22:05:38 GMT+0100 (Centraleuropæisk normaltid)","2021","2","7","22","5","38","LA80","40","female","right","41","15","100","15","0","","","","","test","happy","happy","h","true"
"null","<div style=""font-size:60px;"">+</div>","null","html-keyboard-response","19","71905","0.0-9.0-0.5","c51dht","Sun Feb 07 2021 22:05:38 GMT+0100 (Centraleuropæisk normaltid)","2021","2","7","22","5","38","LA80","40","female","right","41","15","100","15","0","","","","","fixation","","","",""
"720.1399998739362","img/image_stim_f.png","70","image-keyboard-response","20","72627","0.0-9.0-1.5","c51dht","Sun Feb 07 2021 22:05:38 GMT+0100 (Centraleuropæisk normaltid)","2021","2","7","22","5","38","LA80","40","female","right","41","15","100","15","0","","","","","test","fear","fear","f","true"
"null","<div style=""font-size:60px;"">+</div>","null","html-keyboard-response","21","72881","0.0-9.0-0.6","c51dht","Sun Feb 07 2021 22:05:38 GMT+0100 (Centraleuropæisk normaltid)","2021","2","7","22","5","38","LA80","40","female","right","41","15","100","15","0","","","","","fixation","","","",""
"661.7749999277294","img/image_stim_h_stroop.png","72","image-keyboard-response","22","73544","0.0-9.0-1.6","c51dht","Sun Feb 07 2021 22:05:38 GMT+0100 (Centraleuropæisk normaltid)","2021","2","7","22","5","38","LA80","40","female","right","41","15","100","15","0","","","","","test","happy","fear","h","true"
"null","<div style=""font-size:60px;"">+</div>","null","html-keyboard-response","23","74314","0.0-9.0-0.7","c51dht","Sun Feb 07 2021 22:05:38 GMT+0100 (Centraleuropæisk normaltid)","2021","2","7","22","5","38","LA80","40","female","right","41","15","100","15","0","","","","","fixation","","","",""
"876.2349998578429","img/image_stim_f_stroop.png","70","image-keyboard-response","24","75192","0.0-9.0-1.7","c51dht","Sun Feb 07 2021 22:05:38 GMT+0100 (Centraleuropæisk normaltid)","2021","2","7","22","5","38","LA80","40","female","right","41","15","100","15","0","","","","","test","fear","happy","f","true"
"null","<div style=""font-size:60px;"">+</div>","null","html-keyboard-response","25","75699","0.0-9.0-0.8","c51dht","Sun Feb 07 2021 22:05:38 GMT+0100 (Centraleuropæisk normaltid)","2021","2","7","22","5","38","LA80","40","female","right","41","15","100","15","0","","","","","fixation","","","",""
"590.7699998933822","img/image_stim_h.png","72","image-keyboard-response","26","76291","0.0-9.0-1.8","c51dht","Sun Feb 07 2021 22:05:38 GMT+0100 (Centraleuropæisk normaltid)","2021","2","7","22","5","38","LA80","40","female","right","41","15","100","15","0","","","","","test","happy","happy","h","true"
"null","<div style=""font-size:60px;"">+</div>","null","html-keyboard-response","27","78297","0.0-9.0-0.9","c51dht","Sun Feb 07 2021 22:05:38 GMT+0100 (Centraleuropæisk normaltid)","2021","2","7","22","5","38","LA80","40","female","right","41","15","100","15","0","","","","","fixation","","","",""
"917.7500000223517","img/image_stim_f.png","70","image-keyboard-response","28","79216","0.0-9.0-1.9","c51dht","Sun Feb 07 2021 22:05:38 GMT+0100 (Centraleuropæisk normaltid)","2021","2","7","22","5","38","LA80","40","female","right","41","15","100","15","0","","","","","test","fear","fear","f","true"
"null","<div style=""font-size:60px;"">+</div>","null","html-keyboard-response","29","80475","0.0-9.0-0.10","c51dht","Sun Feb 07 2021 22:05:38 GMT+0100 (Centraleuropæisk normaltid)","2021","2","7","22","5","38","LA80","40","female","right","41","15","100","15","0","","","","","fixation","","","",""
"700.2399999182671","img/image_stim_f_stroop.png","70","image-keyboard-response","30","81177","0.0-9.0-1.10","c51dht","Sun Feb 07 2021 22:05:38 GMT+0100 (Centraleuropæisk normaltid)","2021","2","7","22","5","38","LA80","40","female","right","41","15","100","15","0","","","","","test","fear","happy","f","true"
"null","<div style=""font-size:60px;"">+</div>","null","html-keyboard-response","31","81437","0.0-9.0-0.11","c51dht","Sun Feb 07 2021 22:05:38 GMT+0100 (Centraleuropæisk normaltid)","2021","2","7","22","5","38","LA80","40","female","right","41","15","100","15","0","","","","","fixation","","","",""
"605.7649999856949","img/image_stim_h_stroop.png","72","image-keyboard-response","32","82044","0.0-9.0-1.11","c51dht","Sun Feb 07 2021 22:05:38 GMT+0100 (Centraleuropæisk normaltid)","2021","2","7","22","5","38","LA80","40","female","right","41","15","100","15","0","","","","","test","happy","fear","h","true"
"null","<div style=""font-size:60px;"">+</div>","null","html-keyboard-response","33","82554","0.0-9.0-0.12","c51dht","Sun Feb 07 2021 22:05:38 GMT+0100 (Centraleuropæisk normaltid)","2021","2","7","22","5","38","LA80","40","female","right","41","15","100","15","0","","","","","fixation","","","",""
"459.58500006236136","img/image_stim_h_stroop.png","72","image-keyboard-response","34","83016","0.0-9.0-1.12","c51dht","Sun Feb 07 2021 22:05:38 GMT+0100 (Centraleuropæisk normaltid)","2021","2","7","22","5","38","LA80","40","female","right","41","15","100","15","0","","","","","test","happy","fear","h","true"
"null","<div style=""font-size:60px;"">+</div>","null","html-keyboard-response","35","84522","0.0-9.0-0.13","c51dht","Sun Feb 07 2021 22:05:38 GMT+0100 (Centraleuropæisk normaltid)","2021","2","7","22","5","38","LA80","40","female","right","41","15","100","15","0","","","","","fixation","","","",""
"771.6249998193234","img/image_stim_f.png","70","image-keyboard-response","36","85295","0.0-9.0-1.13","c51dht","Sun Feb 07 2021 22:05:38 GMT+0100 (Centraleuropæisk normaltid)","2021","2","7","22","5","38","LA80","40","female","right","41","15","100","15","0","","","","","test","fear","fear","f","true"
"null","<div style=""font-size:60px;"">+</div>","null","html-keyboard-response","37","85554","0.0-9.0-0.14","c51dht","Sun Feb 07 2021 22:05:38 GMT+0100 (Centraleuropæisk normaltid)","2021","2","7","22","5","38","LA80","40","female","right","41","15","100","15","0","","","","","fixation","","","",""
"608.5649998858571","img/image_stim_h.png","72","image-keyboard-response","38","86164","0.0-9.0-1.14","c51dht","Sun Feb 07 2021 22:05:38 GMT+0100 (Centraleuropæisk normaltid)","2021","2","7","22","5","38","LA80","40","female","right","41","15","100","15","0","","","","","test","happy","happy","h","true"
"null","<div style=""font-size:60px;"">+</div>","null","html-keyboard-response","39","87431","0.0-9.0-0.15","c51dht","Sun Feb 07 2021 22:05:38 GMT+0100 (Centraleuropæisk normaltid)","2021","2","7","22","5","38","LA80","40","female","right","41","15","100","15","0","","","","","fixation","","","",""
"642.2299998812377","img/image_stim_f_stroop.png","70","image-keyboard-response","40","88075","0.0-9.0-1.15","c51dht","Sun Feb 07 2021 22:05:38 GMT+0100 (Centraleuropæisk normaltid)","2021","2","7","22","5","38","LA80","40","female","right","41","15","100","15","0","","","","","test","fear","happy","f","true"
"null","<div style=""font-size:60px;"">+</div>","null","html-keyboard-response","41","89835","0.0-9.0-0.16","c51dht","Sun Feb 07 2021 22:05:38 GMT+0100 (Centraleuropæisk normaltid)","2021","2","7","22","5","38","LA80","40","female","right","41","15","100","15","0","","","","","fixation","","","",""
"868.7299999874085","img/image_stim_h_stroop.png","72","image-keyboard-response","42","90706","0.0-9.0-1.16","c51dht","Sun Feb 07 2021 22:05:38 GMT+0100 (Centraleuropæisk normaltid)","2021","2","7","22","5","38","LA80","40","female","right","41","15","100","15","0","","","","","test","happy","fear","h","true"
"null","<div style=""font-size:60px;"">+</div>","null","html-keyboard-response","43","91217","0.0-9.0-0.17","c51dht","Sun Feb 07 2021 22:05:38 GMT+0100 (Centraleuropæisk normaltid)","2021","2","7","22","5","38","LA80","40","female","right","41","15","100","15","0","","","","","fixation","","","",""
"379.60999994538724","img/image_stim_h.png","72","image-keyboard-response","44","91598","0.0-9.0-1.17","c51dht","Sun Feb 07 2021 22:05:38 GMT+0100 (Centraleuropæisk normaltid)","2021","2","7","22","5","38","LA80","40","female","right","41","15","100","15","0","","","","","test","happy","happy","h","true"
"null","<div style=""font-size:60px;"">+</div>","null","html-keyboard-response","45","93604","0.0-9.0-0.18","c51dht","Sun Feb 07 2021 22:05:38 GMT+0100 (Centraleuropæisk normaltid)","2021","2","7","22","5","38","LA80","40","female","right","41","15","100","15","0","","","","","fixation","","","",""
"550.105000147596","img/image_stim_f.png","70","image-keyboard-response","46","94156","0.0-9.0-1.18","c51dht","Sun Feb 07 2021 22:05:38 GMT+0100 (Centraleuropæisk normaltid)","2021","2","7","22","5","38","LA80","40","female","right","41","15","100","15","0","","","","","test","fear","fear","f","true"
"null","<div style=""font-size:60px;"">+</div>","null","html-keyboard-response","47","94421","0.0-9.0-0.19","c51dht","Sun Feb 07 2021 22:05:38 GMT+0100 (Centraleuropæisk normaltid)","2021","2","7","22","5","38","LA80","40","female","right","41","15","100","15","0","","","","","fixation","","","",""
"1014.4550001714379","img/image_stim_f_stroop.png","70","image-keyboard-response","48","95438","0.0-9.0-1.19","c51dht","Sun Feb 07 2021 22:05:38 GMT+0100 (Centraleuropæisk normaltid)","2021","2","7","22","5","38","LA80","40","female","right","41","15","100","15","0","","","","","test","fear","happy","f","true"
"null","<div style=""font-size:60px;"">+</div>","null","html-keyboard-response","49","95951","0.0-9.0-0.20","c51dht","Sun Feb 07 2021 22:05:38 GMT+0100 (Centraleuropæisk normaltid)","2021","2","7","22","5","38","LA80","40","female","right","41","15","100","15","0","","","","","fixation","","","",""
"576.4300001319498","img/image_stim_h_stroop.png","72","image-keyboard-response","50","96529","0.0-9.0-1.20","c51dht","Sun Feb 07 2021 22:05:38 GMT+0100 (Centraleuropæisk normaltid)","2021","2","7","22","5","38","LA80","40","female","right","41","15","100","15","0","","","","","test","happy","fear","h","true"
"null","<div style=""font-size:60px;"">+</div>","null","html-keyboard-response","51","97035","0.0-9.0-0.21","c51dht","Sun Feb 07 2021 22:05:38 GMT+0100 (Centraleuropæisk normaltid)","2021","2","7","22","5","38","LA80","40","female","right","41","15","100","15","0","","","","","fixation","","","",""
"598.2500000391155","img/image_stim_f.png","70","image-keyboard-response","52","97635","0.0-9.0-1.21","c51dht","Sun Feb 07 2021 22:05:38 GMT+0100 (Centraleuropæisk normaltid)","2021","2","7","22","5","38","LA80","40","female","right","41","15","100","15","0","","","","","test","fear","fear","f","true"
"null","<div style=""font-size:60px;"">+</div>","null","html-keyboard-response","53","98900","0.0-9.0-0.22","c51dht","Sun Feb 07 2021 22:05:38 GMT+0100 (Centraleuropæisk normaltid)","2021","2","7","22","5","38","LA80","40","female","right","41","15","100","15","0","","","","","fixation","","","",""
"613.6050000786781","img/image_stim_h.png","72","image-keyboard-response","54","99514","0.0-9.0-1.22","c51dht","Sun Feb 07 2021 22:05:38 GMT+0100 (Centraleuropæisk normaltid)","2021","2","7","22","5","38","LA80","40","female","right","41","15","100","15","0","","","","","test","happy","happy","h","true"
"null","<div style=""font-size:60px;"">+</div>","null","html-keyboard-response","55","100778","0.0-9.0-0.23","c51dht","Sun Feb 07 2021 22:05:38 GMT+0100 (Centraleuropæisk normaltid)","2021","2","7","22","5","38","LA80","40","female","right","41","15","100","15","0","","","","","fixation","","","",""
"606.3350001350045","img/image_stim_f_stroop.png","70","image-keyboard-response","56","101386","0.0-9.0-1.23","c51dht","Sun Feb 07 2021 22:05:38 GMT+0100 (Centraleuropæisk normaltid)","2021","2","7","22","5","38","LA80","40","female","right","41","15","100","15","0","","","","","test","fear","happy","f","true"
"null","<div style=""font-size:60px;"">+</div>","null","html-keyboard-response","57","102893","0.0-9.0-0.24","c51dht","Sun Feb 07 2021 22:05:38 GMT+0100 (Centraleuropæisk normaltid)","2021","2","7","22","5","38","LA80","40","female","right","41","15","100","15","0","","","","","fixation","","","",""
"756.7950000520796","img/image_stim_h_stroop.png","72","image-keyboard-response","58","103651","0.0-9.0-1.24","c51dht","Sun Feb 07 2021 22:05:38 GMT+0100 (Centraleuropæisk normaltid)","2021","2","7","22","5","38","LA80","40","female","right","41","15","100","15","0","","","","","test","happy","fear","h","true"
"null","<div style=""font-size:60px;"">+</div>","null","html-keyboard-response","59","105408","0.0-9.0-0.25","c51dht","Sun Feb 07 2021 22:05:38 GMT+0100 (Centraleuropæisk normaltid)","2021","2","7","22","5","38","LA80","40","female","right","41","15","100","15","0","","","","","fixation","","","",""
"616.3050001487136","img/image_stim_h.png","72","image-keyboard-response","60","106025","0.0-9.0-1.25","c51dht","Sun Feb 07 2021 22:05:38 GMT+0100 (Centraleuropæisk normaltid)","2021","2","7","22","5","38","LA80","40","female","right","41","15","100","15","0","","","","","test","happy","happy","h","true"
"null","<div style=""font-size:60px;"">+</div>","null","html-keyboard-response","61","106284","0.0-9.0-0.26","c51dht","Sun Feb 07 2021 22:05:38 GMT+0100 (Centraleuropæisk normaltid)","2021","2","7","22","5","38","LA80","40","female","right","41","15","100","15","0","","","","","fixation","","","",""
"583.2599999848753","img/image_stim_f.png","70","image-keyboard-response","62","106869","0.0-9.0-1.26","c51dht","Sun Feb 07 2021 22:05:38 GMT+0100 (Centraleuropæisk normaltid)","2021","2","7","22","5","38","LA80","40","female","right","41","15","100","15","0","","","","","test","fear","fear","f","true"
"null","<div style=""font-size:60px;"">+</div>","null","html-keyboard-response","63","107378","0.0-9.0-0.27","c51dht","Sun Feb 07 2021 22:05:38 GMT+0100 (Centraleuropæisk normaltid)","2021","2","7","22","5","38","LA80","40","female","right","41","15","100","15","0","","","","","fixation","","","",""
"843.0900000967085","img/image_stim_f_stroop.png","70","image-keyboard-response","64","108223","0.0-9.0-1.27","c51dht","Sun Feb 07 2021 22:05:38 GMT+0100 (Centraleuropæisk normaltid)","2021","2","7","22","5","38","LA80","40","female","right","41","15","100","15","0","","","","","test","fear","happy","f","true"
"null","<div style=""font-size:60px;"">+</div>","null","html-keyboard-response","65","109979","0.0-9.0-0.28","c51dht","Sun Feb 07 2021 22:05:38 GMT+0100 (Centraleuropæisk normaltid)","2021","2","7","22","5","38","LA80","40","female","right","41","15","100","15","0","","","","","fixation","","","",""
"624.3549999780953","img/image_stim_f.png","70","image-keyboard-response","66","110606","0.0-9.0-1.28","c51dht","Sun Feb 07 2021 22:05:38 GMT+0100 (Centraleuropæisk normaltid)","2021","2","7","22","5","38","LA80","40","female","right","41","15","100","15","0","","","","","test","fear","fear","f","true"
"null","<div style=""font-size:60px;"">+</div>","null","html-keyboard-response","67","112369","0.0-9.0-0.29","c51dht","Sun Feb 07 2021 22:05:38 GMT+0100 (Centraleuropæisk normaltid)","2021","2","7","22","5","38","LA80","40","female","right","41","15","100","15","0","","","","","fixation","","","",""
"545.9349998272955","img/image_stim_h_stroop.png","72","image-keyboard-response","68","112918","0.0-9.0-1.29","c51dht","Sun Feb 07 2021 22:05:38 GMT+0100 (Centraleuropæisk normaltid)","2021","2","7","22","5","38","LA80","40","female","right","41","15","100","15","0","","","","","test","happy","fear","h","true"
"null","<div style=""font-size:60px;"">+</div>","null","html-keyboard-response","69","114928","0.0-9.0-0.30","c51dht","Sun Feb 07 2021 22:05:38 GMT+0100 (Centraleuropæisk normaltid)","2021","2","7","22","5","38","LA80","40","female","right","41","15","100","15","0","","","","","fixation","","","",""
"596.2799999397248","img/image_stim_h.png","72","image-keyboard-response","70","115526","0.0-9.0-1.30","c51dht","Sun Feb 07 2021 22:05:38 GMT+0100 (Centraleuropæisk normaltid)","2021","2","7","22","5","38","LA80","40","female","right","41","15","100","15","0","","","","","test","happy","happy","h","true"
"null","<div style=""font-size:60px;"">+</div>","null","html-keyboard-response","71","117538","0.0-9.0-0.31","c51dht","Sun Feb 07 2021 22:05:38 GMT+0100 (Centraleuropæisk normaltid)","2021","2","7","22","5","38","LA80","40","female","right","41","15","100","15","0","","","","","fixation","","","",""
"527.059999993071","img/image_stim_f_stroop.png","70","image-keyboard-response","72","118067","0.0-9.0-1.31","c51dht","Sun Feb 07 2021 22:05:38 GMT+0100 (Centraleuropæisk normaltid)","2021","2","7","22","5","38","LA80","40","female","right","41","15","100","15","0","","","","","test","fear","happy","f","true"
"null","<div style=""font-size:60px;"">+</div>","null","html-keyboard-response","73","119326","0.0-9.0-0.32","c51dht","Sun Feb 07 2021 22:05:38 GMT+0100 (Centraleuropæisk normaltid)","2021","2","7","22","5","38","LA80","40","female","right","41","15","100","15","0","","","","","fixation","","","",""
"516.8099999427795","img/image_stim_h.png","72","image-keyboard-response","74","119844","0.0-9.0-1.32","c51dht","Sun Feb 07 2021 22:05:38 GMT+0100 (Centraleuropæisk normaltid)","2021","2","7","22","5","38","LA80","40","female","right","41","15","100","15","0","","","","","test","happy","happy","h","true"
"null","<div style=""font-size:60px;"">+</div>","null","html-keyboard-response","75","121858","0.0-9.0-0.33","c51dht","Sun Feb 07 2021 22:05:38 GMT+0100 (Centraleuropæisk normaltid)","2021","2","7","22","5","38","LA80","40","female","right","41","15","100","15","0","","","","","fixation","","","",""
"622.5199999753386","img/image_stim_f_stroop.png","70","image-keyboard-response","76","122482","0.0-9.0-1.33","c51dht","Sun Feb 07 2021 22:05:38 GMT+0100 (Centraleuropæisk normaltid)","2021","2","7","22","5","38","LA80","40","female","right","41","15","100","15","0","","","","","test","fear","happy","f","true"
"null","<div style=""font-size:60px;"">+</div>","null","html-keyboard-response","77","124486","0.0-9.0-0.34","c51dht","Sun Feb 07 2021 22:05:38 GMT+0100 (Centraleuropæisk normaltid)","2021","2","7","22","5","38","LA80","40","female","right","41","15","100","15","0","","","","","fixation","","","",""
"441.8949999380857","img/image_stim_h_stroop.png","72","image-keyboard-response","78","124929","0.0-9.0-1.34","c51dht","Sun Feb 07 2021 22:05:38 GMT+0100 (Centraleuropæisk normaltid)","2021","2","7","22","5","38","LA80","40","female","right","41","15","100","15","0","","","","","test","happy","fear","h","true"
"null","<div style=""font-size:60px;"">+</div>","null","html-keyboard-response","79","126689","0.0-9.0-0.35","c51dht","Sun Feb 07 2021 22:05:38 GMT+0100 (Centraleuropæisk normaltid)","2021","2","7","22","5","38","LA80","40","female","right","41","15","100","15","0","","","","","fixation","","","",""
"717.8800001274794","img/image_stim_f.png","70","image-keyboard-response","80","127409","0.0-9.0-1.35","c51dht","Sun Feb 07 2021 22:05:38 GMT+0100 (Centraleuropæisk normaltid)","2021","2","7","22","5","38","LA80","40","female","right","41","15","100","15","0","","","","","test","fear","fear","f","true"
