"rt","stimulus","key_press","trial_type","trial_index","time_elapsed","internal_node_id","exp_id","Time","year","month","date","hour","minute","seconds","id","age","Gender","Handedness","mood","fresh","hunger","H_since_Sleep","H_since_Eat","responses","question_order","slider_start","response","test_part","face","word","correct_response","correct"
"2372","<p>Welcome to this experiment on daily rhythms and cognition.</p><p>First you will be asked some questions about yourself.</p><p>Then a short experiment will measure your response time.</p><p>Take the test at different times of the day/night.</p><p>The test is anonymous, but comparing your data across time is important.</p><p>Therefore, please make up and remember a personal ID (two letters+ two numbers).</p><p>Use this ID whenever taking the test.</p><p><strong>Press any key to begin.</strong></p>","32","html-keyboard-response","0","2380","0.0-0.0","y5x9ze","Fri Feb 12 2021 12:20:51 GMT+0100 (CET)","2021","2","12","12","20","51","BB16","20","female","right","43","22","84","3","0","","","","","","","","",""
"7428","","","survey-text","1","9820","0.0-1.0","y5x9ze","Fri Feb 12 2021 12:20:51 GMT+0100 (CET)","2021","2","12","12","20","51","BB16","20","female","right","43","22","84","3","0","{""Q0"":""BB16""}","","","","","","","",""
"4471","","","survey-text","2","14299","0.0-2.0","y5x9ze","Fri Feb 12 2021 12:20:51 GMT+0100 (CET)","2021","2","12","12","20","51","BB16","20","female","right","43","22","84","3","0","{""Q0"":""20""}","","","","","","","",""
"4618.000000000004","","","survey-multi-select","3","18922","0.0-3.0","y5x9ze","Fri Feb 12 2021 12:20:51 GMT+0100 (CET)","2021","2","12","12","20","51","BB16","20","female","right","43","22","84","3","0","{""Gender"":[""female""],""Hand"":[""right""]}","[0,1]","","","","","","",""
"6605.999999999996","<p>How Sad/Angry or Happy are you right now?</p>","","html-slider-response","4","25531","0.0-4.0","y5x9ze","Fri Feb 12 2021 12:20:51 GMT+0100 (CET)","2021","2","12","12","20","51","BB16","20","female","right","43","22","84","3","0","","","50","43","","","","",""
"11438","<p>How Tired/Sleepy/Distracted or Fresh/Awake/Alert are you right now?</p>","","html-slider-response","5","36970","0.0-5.0","y5x9ze","Fri Feb 12 2021 12:20:51 GMT+0100 (CET)","2021","2","12","12","20","51","BB16","20","female","right","43","22","84","3","0","","","50","22","","","","",""
"6761","<p>How Hungry or Satiated are you right now?</p>","","html-slider-response","6","43736","0.0-6.0","y5x9ze","Fri Feb 12 2021 12:20:51 GMT+0100 (CET)","2021","2","12","12","20","51","BB16","20","female","right","43","22","84","3","0","","","50","84","","","","",""
"22109.999999999993","","","survey-multi-select","7","65864","0.0-7.0","y5x9ze","Fri Feb 12 2021 12:20:51 GMT+0100 (CET)","2021","2","12","12","20","51","BB16","20","female","right","43","22","84","3","0","{""Sleep"":[""3""],""Eat"":[""0""]}","[0,1]","","","","","","",""
"2466","<p>In this experiment, a face and a word will appear in the center of the screen.</p><p>If the face is <strong>happy</strong>, press the letter <strong>H</strong> with <strong>right</strong> index finger.</p><p>If the face is <strong>fearful</strong>, press the letter <strong>F</strong> with <strong>left</strong> index finger.</p><p><strong>Ignore the written words</strong>. Respond as fast as possible while being correct. </p><div style='width: 900px;'><div style='float: left;'><img src='img/stimuli_stroop_happy.png'></img><p class='small'><strong>Press the H key for happy faces</strong></p></div><div class='float: right;'><img src='img/stimuli_stroop_fear.png'></img><p class='small'><strong>Press the F key for faces with fear</strong></p></div></div><p>If the screen turns blank, press <strong>SPACE</strong></p><p><strong>Press any key to begin.</strong></p>","32","html-keyboard-response","8","68332","0.0-8.0","y5x9ze","Fri Feb 12 2021 12:20:51 GMT+0100 (CET)","2021","2","12","12","20","51","BB16","20","female","right","43","22","84","3","0","","","","","","","","",""
"null","<div style=""font-size:60px;"">+</div>","null","html-keyboard-response","9","70586","0.0-9.0-0.0","y5x9ze","Fri Feb 12 2021 12:20:51 GMT+0100 (CET)","2021","2","12","12","20","51","BB16","20","female","right","43","22","84","3","0","","","","","fixation","","","",""
"580","img/image_stim_f.png","70","image-keyboard-response","10","71173","0.0-9.0-1.0","y5x9ze","Fri Feb 12 2021 12:20:51 GMT+0100 (CET)","2021","2","12","12","20","51","BB16","20","female","right","43","22","84","3","0","","","","","test","fear","fear","f","true"
"null","<div style=""font-size:60px;"">+</div>","null","html-keyboard-response","11","72679","0.0-9.0-0.1","y5x9ze","Fri Feb 12 2021 12:20:51 GMT+0100 (CET)","2021","2","12","12","20","51","BB16","20","female","right","43","22","84","3","0","","","","","fixation","","","",""
"448","img/image_stim_f_stroop.png","70","image-keyboard-response","12","73131","0.0-9.0-1.1","y5x9ze","Fri Feb 12 2021 12:20:51 GMT+0100 (CET)","2021","2","12","12","20","51","BB16","20","female","right","43","22","84","3","0","","","","","test","fear","happy","f","true"
"null","<div style=""font-size:60px;"">+</div>","null","html-keyboard-response","13","75136","0.0-9.0-0.2","y5x9ze","Fri Feb 12 2021 12:20:51 GMT+0100 (CET)","2021","2","12","12","20","51","BB16","20","female","right","43","22","84","3","0","","","","","fixation","","","",""
"590","img/image_stim_h.png","72","image-keyboard-response","14","75730","0.0-9.0-1.2","y5x9ze","Fri Feb 12 2021 12:20:51 GMT+0100 (CET)","2021","2","12","12","20","51","BB16","20","female","right","43","22","84","3","0","","","","","test","happy","happy","h","true"
"null","<div style=""font-size:60px;"">+</div>","null","html-keyboard-response","15","76733","0.0-9.0-0.3","y5x9ze","Fri Feb 12 2021 12:20:51 GMT+0100 (CET)","2021","2","12","12","20","51","BB16","20","female","right","43","22","84","3","0","","","","","fixation","","","",""
"471","img/image_stim_h_stroop.png","72","image-keyboard-response","16","77209","0.0-9.0-1.3","y5x9ze","Fri Feb 12 2021 12:20:51 GMT+0100 (CET)","2021","2","12","12","20","51","BB16","20","female","right","43","22","84","3","0","","","","","test","happy","fear","h","true"
"null","<div style=""font-size:60px;"">+</div>","null","html-keyboard-response","17","79213","0.0-9.0-0.4","y5x9ze","Fri Feb 12 2021 12:20:51 GMT+0100 (CET)","2021","2","12","12","20","51","BB16","20","female","right","43","22","84","3","0","","","","","fixation","","","",""
"497","img/image_stim_f_stroop.png","70","image-keyboard-response","18","79714","0.0-9.0-1.4","y5x9ze","Fri Feb 12 2021 12:20:51 GMT+0100 (CET)","2021","2","12","12","20","51","BB16","20","female","right","43","22","84","3","0","","","","","test","fear","happy","f","true"
"null","<div style=""font-size:60px;"">+</div>","null","html-keyboard-response","19","81468","0.0-9.0-0.5","y5x9ze","Fri Feb 12 2021 12:20:51 GMT+0100 (CET)","2021","2","12","12","20","51","BB16","20","female","right","43","22","84","3","0","","","","","fixation","","","",""
"475","img/image_stim_h_stroop.png","72","image-keyboard-response","20","81953","0.0-9.0-1.5","y5x9ze","Fri Feb 12 2021 12:20:51 GMT+0100 (CET)","2021","2","12","12","20","51","BB16","20","female","right","43","22","84","3","0","","","","","test","happy","fear","h","true"
"null","<div style=""font-size:60px;"">+</div>","null","html-keyboard-response","21","82706","0.0-9.0-0.6","y5x9ze","Fri Feb 12 2021 12:20:51 GMT+0100 (CET)","2021","2","12","12","20","51","BB16","20","female","right","43","22","84","3","0","","","","","fixation","","","",""
"509","img/image_stim_f.png","70","image-keyboard-response","22","83219","0.0-9.0-1.6","y5x9ze","Fri Feb 12 2021 12:20:51 GMT+0100 (CET)","2021","2","12","12","20","51","BB16","20","female","right","43","22","84","3","0","","","","","test","fear","fear","f","true"
"null","<div style=""font-size:60px;"">+</div>","null","html-keyboard-response","23","84974","0.0-9.0-0.7","y5x9ze","Fri Feb 12 2021 12:20:51 GMT+0100 (CET)","2021","2","12","12","20","51","BB16","20","female","right","43","22","84","3","0","","","","","fixation","","","",""
"526","img/image_stim_h.png","72","image-keyboard-response","24","85504","0.0-9.0-1.7","y5x9ze","Fri Feb 12 2021 12:20:51 GMT+0100 (CET)","2021","2","12","12","20","51","BB16","20","female","right","43","22","84","3","0","","","","","test","happy","happy","h","true"
"null","<div style=""font-size:60px;"">+</div>","null","html-keyboard-response","25","86257","0.0-9.0-0.8","y5x9ze","Fri Feb 12 2021 12:20:51 GMT+0100 (CET)","2021","2","12","12","20","51","BB16","20","female","right","43","22","84","3","0","","","","","fixation","","","",""
"482","img/image_stim_h_stroop.png","72","image-keyboard-response","26","86743","0.0-9.0-1.8","y5x9ze","Fri Feb 12 2021 12:20:51 GMT+0100 (CET)","2021","2","12","12","20","51","BB16","20","female","right","43","22","84","3","0","","","","","test","happy","fear","h","true"
"null","<div style=""font-size:60px;"">+</div>","null","html-keyboard-response","27","87747","0.0-9.0-0.9","y5x9ze","Fri Feb 12 2021 12:20:51 GMT+0100 (CET)","2021","2","12","12","20","51","BB16","20","female","right","43","22","84","3","0","","","","","fixation","","","",""
"555","img/image_stim_f_stroop.png","70","image-keyboard-response","28","88306","0.0-9.0-1.9","y5x9ze","Fri Feb 12 2021 12:20:51 GMT+0100 (CET)","2021","2","12","12","20","51","BB16","20","female","right","43","22","84","3","0","","","","","test","fear","happy","f","true"
"null","<div style=""font-size:60px;"">+</div>","null","html-keyboard-response","29","88560","0.0-9.0-0.10","y5x9ze","Fri Feb 12 2021 12:20:51 GMT+0100 (CET)","2021","2","12","12","20","51","BB16","20","female","right","43","22","84","3","0","","","","","fixation","","","",""
"593","img/image_stim_f.png","70","image-keyboard-response","30","89156","0.0-9.0-1.10","y5x9ze","Fri Feb 12 2021 12:20:51 GMT+0100 (CET)","2021","2","12","12","20","51","BB16","20","female","right","43","22","84","3","0","","","","","test","fear","fear","f","true"
"null","<div style=""font-size:60px;"">+</div>","null","html-keyboard-response","31","89911","0.0-9.0-0.11","y5x9ze","Fri Feb 12 2021 12:20:51 GMT+0100 (CET)","2021","2","12","12","20","51","BB16","20","female","right","43","22","84","3","0","","","","","fixation","","","",""
"516.0000000000146","img/image_stim_h.png","72","image-keyboard-response","32","90438","0.0-9.0-1.11","y5x9ze","Fri Feb 12 2021 12:20:51 GMT+0100 (CET)","2021","2","12","12","20","51","BB16","20","female","right","43","22","84","3","0","","","","","test","happy","happy","h","true"
"null","<div style=""font-size:60px;"">+</div>","null","html-keyboard-response","33","91942","0.0-9.0-0.12","y5x9ze","Fri Feb 12 2021 12:20:51 GMT+0100 (CET)","2021","2","12","12","20","51","BB16","20","female","right","43","22","84","3","0","","","","","fixation","","","",""
"682","img/image_stim_h_stroop.png","72","image-keyboard-response","34","92628","0.0-9.0-1.12","y5x9ze","Fri Feb 12 2021 12:20:51 GMT+0100 (CET)","2021","2","12","12","20","51","BB16","20","female","right","43","22","84","3","0","","","","","test","happy","fear","h","true"
"null","<div style=""font-size:60px;"">+</div>","null","html-keyboard-response","35","94631","0.0-9.0-0.13","y5x9ze","Fri Feb 12 2021 12:20:51 GMT+0100 (CET)","2021","2","12","12","20","51","BB16","20","female","right","43","22","84","3","0","","","","","fixation","","","",""
"563","img/image_stim_f.png","70","image-keyboard-response","36","95198","0.0-9.0-1.13","y5x9ze","Fri Feb 12 2021 12:20:51 GMT+0100 (CET)","2021","2","12","12","20","51","BB16","20","female","right","43","22","84","3","0","","","","","test","fear","fear","f","true"
"null","<div style=""font-size:60px;"">+</div>","null","html-keyboard-response","37","96702","0.0-9.0-0.14","y5x9ze","Fri Feb 12 2021 12:20:51 GMT+0100 (CET)","2021","2","12","12","20","51","BB16","20","female","right","43","22","84","3","0","","","","","fixation","","","",""
"504","img/image_stim_h.png","72","image-keyboard-response","38","97211","0.0-9.0-1.14","y5x9ze","Fri Feb 12 2021 12:20:51 GMT+0100 (CET)","2021","2","12","12","20","51","BB16","20","female","right","43","22","84","3","0","","","","","test","happy","happy","h","true"
"null","<div style=""font-size:60px;"">+</div>","null","html-keyboard-response","39","98965","0.0-9.0-0.15","y5x9ze","Fri Feb 12 2021 12:20:51 GMT+0100 (CET)","2021","2","12","12","20","51","BB16","20","female","right","43","22","84","3","0","","","","","fixation","","","",""
"552","img/image_stim_f_stroop.png","70","image-keyboard-response","40","99527","0.0-9.0-1.15","y5x9ze","Fri Feb 12 2021 12:20:51 GMT+0100 (CET)","2021","2","12","12","20","51","BB16","20","female","right","43","22","84","3","0","","","","","test","fear","happy","f","true"
"null","<div style=""font-size:60px;"">+</div>","null","html-keyboard-response","41","100282","0.0-9.0-0.16","y5x9ze","Fri Feb 12 2021 12:20:51 GMT+0100 (CET)","2021","2","12","12","20","51","BB16","20","female","right","43","22","84","3","0","","","","","fixation","","","",""
"497.99999999998545","img/image_stim_h_stroop.png","72","image-keyboard-response","42","100784","0.0-9.0-1.16","y5x9ze","Fri Feb 12 2021 12:20:51 GMT+0100 (CET)","2021","2","12","12","20","51","BB16","20","female","right","43","22","84","3","0","","","","","test","happy","fear","h","true"
"null","<div style=""font-size:60px;"">+</div>","null","html-keyboard-response","43","102038","0.0-9.0-0.17","y5x9ze","Fri Feb 12 2021 12:20:51 GMT+0100 (CET)","2021","2","12","12","20","51","BB16","20","female","right","43","22","84","3","0","","","","","fixation","","","",""
"489","img/image_stim_h.png","72","image-keyboard-response","44","102531","0.0-9.0-1.17","y5x9ze","Fri Feb 12 2021 12:20:51 GMT+0100 (CET)","2021","2","12","12","20","51","BB16","20","female","right","43","22","84","3","0","","","","","test","happy","happy","h","true"
"null","<div style=""font-size:60px;"">+</div>","null","html-keyboard-response","45","103036","0.0-9.0-0.18","y5x9ze","Fri Feb 12 2021 12:20:51 GMT+0100 (CET)","2021","2","12","12","20","51","BB16","20","female","right","43","22","84","3","0","","","","","fixation","","","",""
"509","img/image_stim_f.png","70","image-keyboard-response","46","103548","0.0-9.0-1.18","y5x9ze","Fri Feb 12 2021 12:20:51 GMT+0100 (CET)","2021","2","12","12","20","51","BB16","20","female","right","43","22","84","3","0","","","","","test","fear","fear","f","true"
"null","<div style=""font-size:60px;"">+</div>","null","html-keyboard-response","47","104302","0.0-9.0-0.19","y5x9ze","Fri Feb 12 2021 12:20:51 GMT+0100 (CET)","2021","2","12","12","20","51","BB16","20","female","right","43","22","84","3","0","","","","","fixation","","","",""
"669","img/image_stim_f_stroop.png","70","image-keyboard-response","48","104974","0.0-9.0-1.19","y5x9ze","Fri Feb 12 2021 12:20:51 GMT+0100 (CET)","2021","2","12","12","20","51","BB16","20","female","right","43","22","84","3","0","","","","","test","fear","happy","f","true"
"null","<div style=""font-size:60px;"">+</div>","null","html-keyboard-response","49","106478","0.0-9.0-0.20","y5x9ze","Fri Feb 12 2021 12:20:51 GMT+0100 (CET)","2021","2","12","12","20","51","BB16","20","female","right","43","22","84","3","0","","","","","fixation","","","",""
"504","img/image_stim_h_stroop.png","72","image-keyboard-response","50","106986","0.0-9.0-1.20","y5x9ze","Fri Feb 12 2021 12:20:51 GMT+0100 (CET)","2021","2","12","12","20","51","BB16","20","female","right","43","22","84","3","0","","","","","test","happy","fear","h","true"
"null","<div style=""font-size:60px;"">+</div>","null","html-keyboard-response","51","108740","0.0-9.0-0.21","y5x9ze","Fri Feb 12 2021 12:20:51 GMT+0100 (CET)","2021","2","12","12","20","51","BB16","20","female","right","43","22","84","3","0","","","","","fixation","","","",""
"461","img/image_stim_h.png","72","image-keyboard-response","52","109211","0.0-9.0-1.21","y5x9ze","Fri Feb 12 2021 12:20:51 GMT+0100 (CET)","2021","2","12","12","20","51","BB16","20","female","right","43","22","84","3","0","","","","","test","happy","happy","h","true"
"null","<div style=""font-size:60px;"">+</div>","null","html-keyboard-response","53","110965","0.0-9.0-0.22","y5x9ze","Fri Feb 12 2021 12:20:51 GMT+0100 (CET)","2021","2","12","12","20","51","BB16","20","female","right","43","22","84","3","0","","","","","fixation","","","",""
"405","img/image_stim_f_stroop.png","70","image-keyboard-response","54","111373","0.0-9.0-1.22","y5x9ze","Fri Feb 12 2021 12:20:51 GMT+0100 (CET)","2021","2","12","12","20","51","BB16","20","female","right","43","22","84","3","0","","","","","test","fear","happy","f","true"
"null","<div style=""font-size:60px;"">+</div>","null","html-keyboard-response","55","113378","0.0-9.0-0.23","y5x9ze","Fri Feb 12 2021 12:20:51 GMT+0100 (CET)","2021","2","12","12","20","51","BB16","20","female","right","43","22","84","3","0","","","","","fixation","","","",""
"569","img/image_stim_f.png","70","image-keyboard-response","56","113951","0.0-9.0-1.23","y5x9ze","Fri Feb 12 2021 12:20:51 GMT+0100 (CET)","2021","2","12","12","20","51","BB16","20","female","right","43","22","84","3","0","","","","","test","fear","fear","f","true"
"null","<div style=""font-size:60px;"">+</div>","null","html-keyboard-response","57","115205","0.0-9.0-0.24","y5x9ze","Fri Feb 12 2021 12:20:51 GMT+0100 (CET)","2021","2","12","12","20","51","BB16","20","female","right","43","22","84","3","0","","","","","fixation","","","",""
"506","img/image_stim_h.png","72","image-keyboard-response","58","115715","0.0-9.0-1.24","y5x9ze","Fri Feb 12 2021 12:20:51 GMT+0100 (CET)","2021","2","12","12","20","51","BB16","20","female","right","43","22","84","3","0","","","","","test","happy","happy","h","true"
"null","<div style=""font-size:60px;"">+</div>","null","html-keyboard-response","59","116719","0.0-9.0-0.25","y5x9ze","Fri Feb 12 2021 12:20:51 GMT+0100 (CET)","2021","2","12","12","20","51","BB16","20","female","right","43","22","84","3","0","","","","","fixation","","","",""
"539","img/image_stim_f_stroop.png","70","image-keyboard-response","60","117266","0.0-9.0-1.25","y5x9ze","Fri Feb 12 2021 12:20:51 GMT+0100 (CET)","2021","2","12","12","20","51","BB16","20","female","right","43","22","84","3","0","","","","","test","fear","happy","f","true"
"null","<div style=""font-size:60px;"">+</div>","null","html-keyboard-response","61","119022","0.0-9.0-0.26","y5x9ze","Fri Feb 12 2021 12:20:51 GMT+0100 (CET)","2021","2","12","12","20","51","BB16","20","female","right","43","22","84","3","0","","","","","fixation","","","",""
"496","img/image_stim_h_stroop.png","72","image-keyboard-response","62","119522","0.0-9.0-1.26","y5x9ze","Fri Feb 12 2021 12:20:51 GMT+0100 (CET)","2021","2","12","12","20","51","BB16","20","female","right","43","22","84","3","0","","","","","test","happy","fear","h","true"
"null","<div style=""font-size:60px;"">+</div>","null","html-keyboard-response","63","121526","0.0-9.0-0.27","y5x9ze","Fri Feb 12 2021 12:20:51 GMT+0100 (CET)","2021","2","12","12","20","51","BB16","20","female","right","43","22","84","3","0","","","","","fixation","","","",""
"491","img/image_stim_f.png","70","image-keyboard-response","64","122021","0.0-9.0-1.27","y5x9ze","Fri Feb 12 2021 12:20:51 GMT+0100 (CET)","2021","2","12","12","20","51","BB16","20","female","right","43","22","84","3","0","","","","","test","fear","fear","f","true"
"null","<div style=""font-size:60px;"">+</div>","null","html-keyboard-response","65","123777","0.0-9.0-0.28","y5x9ze","Fri Feb 12 2021 12:20:51 GMT+0100 (CET)","2021","2","12","12","20","51","BB16","20","female","right","43","22","84","3","0","","","","","fixation","","","",""
"460","img/image_stim_h_stroop.png","72","image-keyboard-response","66","124240","0.0-9.0-1.28","y5x9ze","Fri Feb 12 2021 12:20:51 GMT+0100 (CET)","2021","2","12","12","20","51","BB16","20","female","right","43","22","84","3","0","","","","","test","happy","fear","h","true"
"null","<div style=""font-size:60px;"">+</div>","null","html-keyboard-response","67","124997","0.0-9.0-0.29","y5x9ze","Fri Feb 12 2021 12:20:51 GMT+0100 (CET)","2021","2","12","12","20","51","BB16","20","female","right","43","22","84","3","0","","","","","fixation","","","",""
"517","img/image_stim_f_stroop.png","70","image-keyboard-response","68","125519","0.0-9.0-1.29","y5x9ze","Fri Feb 12 2021 12:20:51 GMT+0100 (CET)","2021","2","12","12","20","51","BB16","20","female","right","43","22","84","3","0","","","","","test","fear","happy","f","true"
"null","<div style=""font-size:60px;"">+</div>","null","html-keyboard-response","69","125774","0.0-9.0-0.30","y5x9ze","Fri Feb 12 2021 12:20:51 GMT+0100 (CET)","2021","2","12","12","20","51","BB16","20","female","right","43","22","84","3","0","","","","","fixation","","","",""
"632","img/image_stim_h.png","72","image-keyboard-response","70","126408","0.0-9.0-1.30","y5x9ze","Fri Feb 12 2021 12:20:51 GMT+0100 (CET)","2021","2","12","12","20","51","BB16","20","female","right","43","22","84","3","0","","","","","test","happy","happy","h","true"
"null","<div style=""font-size:60px;"">+</div>","null","html-keyboard-response","71","128164","0.0-9.0-0.31","y5x9ze","Fri Feb 12 2021 12:20:51 GMT+0100 (CET)","2021","2","12","12","20","51","BB16","20","female","right","43","22","84","3","0","","","","","fixation","","","",""
"505","img/image_stim_f.png","70","image-keyboard-response","72","128673","0.0-9.0-1.31","y5x9ze","Fri Feb 12 2021 12:20:51 GMT+0100 (CET)","2021","2","12","12","20","51","BB16","20","female","right","43","22","84","3","0","","","","","test","fear","fear","f","true"
"null","<div style=""font-size:60px;"">+</div>","null","html-keyboard-response","73","130428","0.0-9.0-0.32","y5x9ze","Fri Feb 12 2021 12:20:51 GMT+0100 (CET)","2021","2","12","12","20","51","BB16","20","female","right","43","22","84","3","0","","","","","fixation","","","",""
"425.99999999998545","img/image_stim_h.png","72","image-keyboard-response","74","130863","0.0-9.0-1.32","y5x9ze","Fri Feb 12 2021 12:20:51 GMT+0100 (CET)","2021","2","12","12","20","51","BB16","20","female","right","43","22","84","3","0","","","","","test","happy","happy","h","true"
"null","<div style=""font-size:60px;"">+</div>","null","html-keyboard-response","75","132868","0.0-9.0-0.33","y5x9ze","Fri Feb 12 2021 12:20:51 GMT+0100 (CET)","2021","2","12","12","20","51","BB16","20","female","right","43","22","84","3","0","","","","","fixation","","","",""
"510","img/image_stim_f.png","70","image-keyboard-response","76","133382","0.0-9.0-1.33","y5x9ze","Fri Feb 12 2021 12:20:51 GMT+0100 (CET)","2021","2","12","12","20","51","BB16","20","female","right","43","22","84","3","0","","","","","test","fear","fear","f","true"
"null","<div style=""font-size:60px;"">+</div>","null","html-keyboard-response","77","135138","0.0-9.0-0.34","y5x9ze","Fri Feb 12 2021 12:20:51 GMT+0100 (CET)","2021","2","12","12","20","51","BB16","20","female","right","43","22","84","3","0","","","","","fixation","","","",""
"685.9999999999709","img/image_stim_h_stroop.png","72","image-keyboard-response","78","135827","0.0-9.0-1.34","y5x9ze","Fri Feb 12 2021 12:20:51 GMT+0100 (CET)","2021","2","12","12","20","51","BB16","20","female","right","43","22","84","3","0","","","","","test","happy","fear","h","true"
"null","<div style=""font-size:60px;"">+</div>","null","html-keyboard-response","79","137582","0.0-9.0-0.35","y5x9ze","Fri Feb 12 2021 12:20:51 GMT+0100 (CET)","2021","2","12","12","20","51","BB16","20","female","right","43","22","84","3","0","","","","","fixation","","","",""
"453","img/image_stim_f_stroop.png","70","image-keyboard-response","80","138038","0.0-9.0-1.35","y5x9ze","Fri Feb 12 2021 12:20:51 GMT+0100 (CET)","2021","2","12","12","20","51","BB16","20","female","right","43","22","84","3","0","","","","","test","fear","happy","f","true"
