"rt","stimulus","key_press","trial_type","trial_index","time_elapsed","internal_node_id","exp_id","Time","year","month","date","hour","minute","seconds","id","age","Gender","Handedness","mood","fresh","hunger","H_since_Sleep","H_since_Eat","responses","question_order","slider_start","response","test_part","face","word","correct_response","correct"
"2327.7000002861023","<p>Welcome to this experiment on daily rhythms and cognition.</p><p>First you will be asked some questions about yourself.</p><p>Then a short experiment will measure your response time.</p><p>Take the test at different times of the day/night.</p><p>The test is anonymous, but comparing your data across time is important.</p><p>Therefore, please make up and remember a personal ID (two letters+ two numbers).</p><p>Use this ID whenever taking the test.</p><p><strong>Press any key to begin.</strong></p>","13","html-keyboard-response","0","2330","0.0-0.0","tkd7lg","Sat Feb 05 2022 14:11:30 GMT+0100 (Centraleuropæisk normaltid)","2022","2","5","14","11","30","sk09","20","female","left","87","64","50","7","0","","","","","","","","",""
"3989.0999999046326","","","survey-text","1","6328","0.0-1.0","tkd7lg","Sat Feb 05 2022 14:11:30 GMT+0100 (Centraleuropæisk normaltid)","2022","2","5","14","11","30","sk09","20","female","left","87","64","50","7","0","{""Q0"":""sk09""}","","","","","","","",""
"2286.4000000953674","","","survey-text","2","8620","0.0-2.0","tkd7lg","Sat Feb 05 2022 14:11:30 GMT+0100 (Centraleuropæisk normaltid)","2022","2","5","14","11","30","sk09","20","female","left","87","64","50","7","0","{""Q0"":""20""}","","","","","","","",""
"3774.9000000953674","","","survey-multi-select","3","12399","0.0-3.0","tkd7lg","Sat Feb 05 2022 14:11:30 GMT+0100 (Centraleuropæisk normaltid)","2022","2","5","14","11","30","sk09","20","female","left","87","64","50","7","0","{""Gender"":[""female""],""Hand"":[""left""]}","[0,1]","","","","","","",""
"3986.9000000953674","<p>How Sad/Angry or Happy are you right now?</p>","","html-slider-response","4","16392","0.0-4.0","tkd7lg","Sat Feb 05 2022 14:11:30 GMT+0100 (Centraleuropæisk normaltid)","2022","2","5","14","11","30","sk09","20","female","left","87","64","50","7","0","","","50","87","","","","",""
"5989.199999809265","<p>How Tired/Sleepy/Distracted or Fresh/Awake/Alert are you right now?</p>","","html-slider-response","5","22384","0.0-5.0","tkd7lg","Sat Feb 05 2022 14:11:30 GMT+0100 (Centraleuropæisk normaltid)","2022","2","5","14","11","30","sk09","20","female","left","87","64","50","7","0","","","50","64","","","","",""
"3499.9000000953674","<p>How Hungry or Satiated are you right now?</p>","","html-slider-response","6","25886","0.0-6.0","tkd7lg","Sat Feb 05 2022 14:11:30 GMT+0100 (Centraleuropæisk normaltid)","2022","2","5","14","11","30","sk09","20","female","left","87","64","50","7","0","","","50","50","","","","",""
"14399.200000286102","","","survey-multi-select","7","40312","0.0-7.0","tkd7lg","Sat Feb 05 2022 14:11:30 GMT+0100 (Centraleuropæisk normaltid)","2022","2","5","14","11","30","sk09","20","female","left","87","64","50","7","0","{""Sleep"":[""7""],""Eat"":[""0""]}","[0,1]","","","","","","",""
"32528.099999904633","<p>In this experiment, a face and a word will appear in the center of the screen.</p><p>If the face is <strong>happy</strong>, press the letter <strong>H</strong> with <strong>right</strong> index finger.</p><p>If the face is <strong>fearful</strong>, press the letter <strong>F</strong> with <strong>left</strong> index finger.</p><p><strong>Ignore the written words</strong>. Respond as fast as possible while being correct. </p><div style='width: 900px;'><div style='float: left;'><img src='img/stimuli_stroop_happy.png'></img><p class='small'><strong>Press the H key for happy faces</strong></p></div><div class='float: right;'><img src='img/stimuli_stroop_fear.png'></img><p class='small'><strong>Press the F key for faces with fear</strong></p></div></div><p>If the screen turns blank, press <strong>SPACE</strong></p><p><strong>Press any key to begin.</strong></p>","32","html-keyboard-response","8","72848","0.0-8.0","tkd7lg","Sat Feb 05 2022 14:11:30 GMT+0100 (Centraleuropæisk normaltid)","2022","2","5","14","11","30","sk09","20","female","left","87","64","50","7","0","","","","","","","","",""
"null","<div style=""font-size:60px;"">+</div>","null","html-keyboard-response","9","75855","0.0-9.0-0.0","tkd7lg","Sat Feb 05 2022 14:11:30 GMT+0100 (Centraleuropæisk normaltid)","2022","2","5","14","11","30","sk09","20","female","left","87","64","50","7","0","","","","","fixation","","","",""
"1673.7000002861023","img/image_stim_h_stroop.png","72","image-keyboard-response","10","77550","0.0-9.0-1.0","tkd7lg","Sat Feb 05 2022 14:11:30 GMT+0100 (Centraleuropæisk normaltid)","2022","2","5","14","11","30","sk09","20","female","left","87","64","50","7","0","","","","","test","happy","fear","h","true"
"null","<div style=""font-size:60px;"">+</div>","null","html-keyboard-response","11","78069","0.0-9.0-0.1","tkd7lg","Sat Feb 05 2022 14:11:30 GMT+0100 (Centraleuropæisk normaltid)","2022","2","5","14","11","30","sk09","20","female","left","87","64","50","7","0","","","","","fixation","","","",""
"773.2000002861023","img/image_stim_f_stroop.png","70","image-keyboard-response","12","78844","0.0-9.0-1.1","tkd7lg","Sat Feb 05 2022 14:11:30 GMT+0100 (Centraleuropæisk normaltid)","2022","2","5","14","11","30","sk09","20","female","left","87","64","50","7","0","","","","","test","fear","happy","f","true"
"null","<div style=""font-size:60px;"">+</div>","null","html-keyboard-response","13","80114","0.0-9.0-0.2","tkd7lg","Sat Feb 05 2022 14:11:30 GMT+0100 (Centraleuropæisk normaltid)","2022","2","5","14","11","30","sk09","20","female","left","87","64","50","7","0","","","","","fixation","","","",""
"1404.5999999046326","img/image_stim_f.png","70","image-keyboard-response","14","81522","0.0-9.0-1.2","tkd7lg","Sat Feb 05 2022 14:11:30 GMT+0100 (Centraleuropæisk normaltid)","2022","2","5","14","11","30","sk09","20","female","left","87","64","50","7","0","","","","","test","fear","fear","f","true"
"null","<div style=""font-size:60px;"">+</div>","null","html-keyboard-response","15","81784","0.0-9.0-0.3","tkd7lg","Sat Feb 05 2022 14:11:30 GMT+0100 (Centraleuropæisk normaltid)","2022","2","5","14","11","30","sk09","20","female","left","87","64","50","7","0","","","","","fixation","","","",""
"769.1999998092651","img/image_stim_h.png","72","image-keyboard-response","16","82555","0.0-9.0-1.3","tkd7lg","Sat Feb 05 2022 14:11:30 GMT+0100 (Centraleuropæisk normaltid)","2022","2","5","14","11","30","sk09","20","female","left","87","64","50","7","0","","","","","test","happy","happy","h","true"
"null","<div style=""font-size:60px;"">+</div>","null","html-keyboard-response","17","83067","0.0-9.0-0.4","tkd7lg","Sat Feb 05 2022 14:11:30 GMT+0100 (Centraleuropæisk normaltid)","2022","2","5","14","11","30","sk09","20","female","left","87","64","50","7","0","","","","","fixation","","","",""
"746.5999999046326","img/image_stim_f.png","70","image-keyboard-response","18","83817","0.0-9.0-1.4","tkd7lg","Sat Feb 05 2022 14:11:30 GMT+0100 (Centraleuropæisk normaltid)","2022","2","5","14","11","30","sk09","20","female","left","87","64","50","7","0","","","","","test","fear","fear","f","true"
"null","<div style=""font-size:60px;"">+</div>","null","html-keyboard-response","19","85334","0.0-9.0-0.5","tkd7lg","Sat Feb 05 2022 14:11:30 GMT+0100 (Centraleuropæisk normaltid)","2022","2","5","14","11","30","sk09","20","female","left","87","64","50","7","0","","","","","fixation","","","",""
"2045.5999999046326","img/image_stim_f_stroop.png","70","image-keyboard-response","20","87382","0.0-9.0-1.5","tkd7lg","Sat Feb 05 2022 14:11:30 GMT+0100 (Centraleuropæisk normaltid)","2022","2","5","14","11","30","sk09","20","female","left","87","64","50","7","0","","","","","test","fear","happy","f","true"
"null","<div style=""font-size:60px;"">+</div>","null","html-keyboard-response","21","87650","0.0-9.0-0.6","tkd7lg","Sat Feb 05 2022 14:11:30 GMT+0100 (Centraleuropæisk normaltid)","2022","2","5","14","11","30","sk09","20","female","left","87","64","50","7","0","","","","","fixation","","","",""
"573","img/image_stim_h_stroop.png","72","image-keyboard-response","22","88225","0.0-9.0-1.6","tkd7lg","Sat Feb 05 2022 14:11:30 GMT+0100 (Centraleuropæisk normaltid)","2022","2","5","14","11","30","sk09","20","female","left","87","64","50","7","0","","","","","test","happy","fear","h","true"
"null","<div style=""font-size:60px;"">+</div>","null","html-keyboard-response","23","88734","0.0-9.0-0.7","tkd7lg","Sat Feb 05 2022 14:11:30 GMT+0100 (Centraleuropæisk normaltid)","2022","2","5","14","11","30","sk09","20","female","left","87","64","50","7","0","","","","","fixation","","","",""
"525.1000003814697","img/image_stim_h.png","72","image-keyboard-response","24","89262","0.0-9.0-1.7","tkd7lg","Sat Feb 05 2022 14:11:30 GMT+0100 (Centraleuropæisk normaltid)","2022","2","5","14","11","30","sk09","20","female","left","87","64","50","7","0","","","","","test","happy","happy","h","true"
"null","<div style=""font-size:60px;"">+</div>","null","html-keyboard-response","25","90783","0.0-9.0-0.8","tkd7lg","Sat Feb 05 2022 14:11:30 GMT+0100 (Centraleuropæisk normaltid)","2022","2","5","14","11","30","sk09","20","female","left","87","64","50","7","0","","","","","fixation","","","",""
"534","img/image_stim_h_stroop.png","72","image-keyboard-response","26","91319","0.0-9.0-1.8","tkd7lg","Sat Feb 05 2022 14:11:30 GMT+0100 (Centraleuropæisk normaltid)","2022","2","5","14","11","30","sk09","20","female","left","87","64","50","7","0","","","","","test","happy","fear","h","true"
"null","<div style=""font-size:60px;"">+</div>","null","html-keyboard-response","27","92832","0.0-9.0-0.9","tkd7lg","Sat Feb 05 2022 14:11:30 GMT+0100 (Centraleuropæisk normaltid)","2022","2","5","14","11","30","sk09","20","female","left","87","64","50","7","0","","","","","fixation","","","",""
"561.5999999046326","img/image_stim_f_stroop.png","70","image-keyboard-response","28","93396","0.0-9.0-1.9","tkd7lg","Sat Feb 05 2022 14:11:30 GMT+0100 (Centraleuropæisk normaltid)","2022","2","5","14","11","30","sk09","20","female","left","87","64","50","7","0","","","","","test","fear","happy","f","true"
"null","<div style=""font-size:60px;"">+</div>","null","html-keyboard-response","29","95156","0.0-9.0-0.10","tkd7lg","Sat Feb 05 2022 14:11:30 GMT+0100 (Centraleuropæisk normaltid)","2022","2","5","14","11","30","sk09","20","female","left","87","64","50","7","0","","","","","fixation","","","",""
"398.90000009536743","img/image_stim_f.png","70","image-keyboard-response","30","95557","0.0-9.0-1.10","tkd7lg","Sat Feb 05 2022 14:11:30 GMT+0100 (Centraleuropæisk normaltid)","2022","2","5","14","11","30","sk09","20","female","left","87","64","50","7","0","","","","","test","fear","fear","f","true"
"null","<div style=""font-size:60px;"">+</div>","null","html-keyboard-response","31","96815","0.0-9.0-0.11","tkd7lg","Sat Feb 05 2022 14:11:30 GMT+0100 (Centraleuropæisk normaltid)","2022","2","5","14","11","30","sk09","20","female","left","87","64","50","7","0","","","","","fixation","","","",""
"520.3999996185303","img/image_stim_h.png","72","image-keyboard-response","32","97338","0.0-9.0-1.11","tkd7lg","Sat Feb 05 2022 14:11:30 GMT+0100 (Centraleuropæisk normaltid)","2022","2","5","14","11","30","sk09","20","female","left","87","64","50","7","0","","","","","test","happy","happy","h","true"
"null","<div style=""font-size:60px;"">+</div>","null","html-keyboard-response","33","98599","0.0-9.0-0.12","tkd7lg","Sat Feb 05 2022 14:11:30 GMT+0100 (Centraleuropæisk normaltid)","2022","2","5","14","11","30","sk09","20","female","left","87","64","50","7","0","","","","","fixation","","","",""
"358.90000009536743","img/image_stim_h_stroop.png","72","image-keyboard-response","34","98960","0.0-9.0-1.12","tkd7lg","Sat Feb 05 2022 14:11:30 GMT+0100 (Centraleuropæisk normaltid)","2022","2","5","14","11","30","sk09","20","female","left","87","64","50","7","0","","","","","test","happy","fear","h","true"
"null","<div style=""font-size:60px;"">+</div>","null","html-keyboard-response","35","100221","0.0-9.0-0.13","tkd7lg","Sat Feb 05 2022 14:11:30 GMT+0100 (Centraleuropæisk normaltid)","2022","2","5","14","11","30","sk09","20","female","left","87","64","50","7","0","","","","","fixation","","","",""
"389.1000003814697","img/image_stim_f.png","70","image-keyboard-response","36","100613","0.0-9.0-1.13","tkd7lg","Sat Feb 05 2022 14:11:30 GMT+0100 (Centraleuropæisk normaltid)","2022","2","5","14","11","30","sk09","20","female","left","87","64","50","7","0","","","","","test","fear","fear","f","true"
"null","<div style=""font-size:60px;"">+</div>","null","html-keyboard-response","37","101130","0.0-9.0-0.14","tkd7lg","Sat Feb 05 2022 14:11:30 GMT+0100 (Centraleuropæisk normaltid)","2022","2","5","14","11","30","sk09","20","female","left","87","64","50","7","0","","","","","fixation","","","",""
"631.9000000953674","img/image_stim_f_stroop.png","72","image-keyboard-response","38","101765","0.0-9.0-1.14","tkd7lg","Sat Feb 05 2022 14:11:30 GMT+0100 (Centraleuropæisk normaltid)","2022","2","5","14","11","30","sk09","20","female","left","87","64","50","7","0","","","","","test","fear","happy","f","false"
"null","<div style=""font-size:60px;"">+</div>","null","html-keyboard-response","39","102767","0.0-9.0-0.15","tkd7lg","Sat Feb 05 2022 14:11:30 GMT+0100 (Centraleuropæisk normaltid)","2022","2","5","14","11","30","sk09","20","female","left","87","64","50","7","0","","","","","fixation","","","",""
"621.5","img/image_stim_h.png","72","image-keyboard-response","40","103391","0.0-9.0-1.15","tkd7lg","Sat Feb 05 2022 14:11:30 GMT+0100 (Centraleuropæisk normaltid)","2022","2","5","14","11","30","sk09","20","female","left","87","64","50","7","0","","","","","test","happy","happy","h","true"
"null","<div style=""font-size:60px;"">+</div>","null","html-keyboard-response","41","104412","0.0-9.0-0.16","tkd7lg","Sat Feb 05 2022 14:11:30 GMT+0100 (Centraleuropæisk normaltid)","2022","2","5","14","11","30","sk09","20","female","left","87","64","50","7","0","","","","","fixation","","","",""
"466.69999980926514","img/image_stim_h_stroop.png","72","image-keyboard-response","42","104881","0.0-9.0-1.16","tkd7lg","Sat Feb 05 2022 14:11:30 GMT+0100 (Centraleuropæisk normaltid)","2022","2","5","14","11","30","sk09","20","female","left","87","64","50","7","0","","","","","test","happy","fear","h","true"
"null","<div style=""font-size:60px;"">+</div>","null","html-keyboard-response","43","105145","0.0-9.0-0.17","tkd7lg","Sat Feb 05 2022 14:11:30 GMT+0100 (Centraleuropæisk normaltid)","2022","2","5","14","11","30","sk09","20","female","left","87","64","50","7","0","","","","","fixation","","","",""
"459.59999990463257","img/image_stim_f.png","70","image-keyboard-response","44","105607","0.0-9.0-1.17","tkd7lg","Sat Feb 05 2022 14:11:30 GMT+0100 (Centraleuropæisk normaltid)","2022","2","5","14","11","30","sk09","20","female","left","87","64","50","7","0","","","","","test","fear","fear","f","true"
"null","<div style=""font-size:60px;"">+</div>","null","html-keyboard-response","45","106126","0.0-9.0-0.18","tkd7lg","Sat Feb 05 2022 14:11:30 GMT+0100 (Centraleuropæisk normaltid)","2022","2","5","14","11","30","sk09","20","female","left","87","64","50","7","0","","","","","fixation","","","",""
"822.8000001907349","img/image_stim_f_stroop.png","70","image-keyboard-response","46","106952","0.0-9.0-1.18","tkd7lg","Sat Feb 05 2022 14:11:30 GMT+0100 (Centraleuropæisk normaltid)","2022","2","5","14","11","30","sk09","20","female","left","87","64","50","7","0","","","","","test","fear","happy","f","true"
"null","<div style=""font-size:60px;"">+</div>","null","html-keyboard-response","47","107971","0.0-9.0-0.19","tkd7lg","Sat Feb 05 2022 14:11:30 GMT+0100 (Centraleuropæisk normaltid)","2022","2","5","14","11","30","sk09","20","female","left","87","64","50","7","0","","","","","fixation","","","",""
"532","img/image_stim_h.png","72","image-keyboard-response","48","108505","0.0-9.0-1.19","tkd7lg","Sat Feb 05 2022 14:11:30 GMT+0100 (Centraleuropæisk normaltid)","2022","2","5","14","11","30","sk09","20","female","left","87","64","50","7","0","","","","","test","happy","happy","h","true"
"null","<div style=""font-size:60px;"">+</div>","null","html-keyboard-response","49","109770","0.0-9.0-0.20","tkd7lg","Sat Feb 05 2022 14:11:30 GMT+0100 (Centraleuropæisk normaltid)","2022","2","5","14","11","30","sk09","20","female","left","87","64","50","7","0","","","","","fixation","","","",""
"554.0999999046326","img/image_stim_f.png","70","image-keyboard-response","50","110327","0.0-9.0-1.20","tkd7lg","Sat Feb 05 2022 14:11:30 GMT+0100 (Centraleuropæisk normaltid)","2022","2","5","14","11","30","sk09","20","female","left","87","64","50","7","0","","","","","test","fear","fear","f","true"
"null","<div style=""font-size:60px;"">+</div>","null","html-keyboard-response","51","111844","0.0-9.0-0.21","tkd7lg","Sat Feb 05 2022 14:11:30 GMT+0100 (Centraleuropæisk normaltid)","2022","2","5","14","11","30","sk09","20","female","left","87","64","50","7","0","","","","","fixation","","","",""
"340.19999980926514","img/image_stim_f_stroop.png","70","image-keyboard-response","52","112187","0.0-9.0-1.21","tkd7lg","Sat Feb 05 2022 14:11:30 GMT+0100 (Centraleuropæisk normaltid)","2022","2","5","14","11","30","sk09","20","female","left","87","64","50","7","0","","","","","test","fear","happy","f","true"
"null","<div style=""font-size:60px;"">+</div>","null","html-keyboard-response","53","112445","0.0-9.0-0.22","tkd7lg","Sat Feb 05 2022 14:11:30 GMT+0100 (Centraleuropæisk normaltid)","2022","2","5","14","11","30","sk09","20","female","left","87","64","50","7","0","","","","","fixation","","","",""
"541.1999998092651","img/image_stim_h_stroop.png","72","image-keyboard-response","54","112989","0.0-9.0-1.22","tkd7lg","Sat Feb 05 2022 14:11:30 GMT+0100 (Centraleuropæisk normaltid)","2022","2","5","14","11","30","sk09","20","female","left","87","64","50","7","0","","","","","test","happy","fear","h","true"
"null","<div style=""font-size:60px;"">+</div>","null","html-keyboard-response","55","114498","0.0-9.0-0.23","tkd7lg","Sat Feb 05 2022 14:11:30 GMT+0100 (Centraleuropæisk normaltid)","2022","2","5","14","11","30","sk09","20","female","left","87","64","50","7","0","","","","","fixation","","","",""
"509.2000002861023","img/image_stim_h.png","72","image-keyboard-response","56","115010","0.0-9.0-1.23","tkd7lg","Sat Feb 05 2022 14:11:30 GMT+0100 (Centraleuropæisk normaltid)","2022","2","5","14","11","30","sk09","20","female","left","87","64","50","7","0","","","","","test","happy","happy","h","true"
"null","<div style=""font-size:60px;"">+</div>","null","html-keyboard-response","57","115526","0.0-9.0-0.24","tkd7lg","Sat Feb 05 2022 14:11:30 GMT+0100 (Centraleuropæisk normaltid)","2022","2","5","14","11","30","sk09","20","female","left","87","64","50","7","0","","","","","fixation","","","",""
"726.7999997138977","img/image_stim_f.png","70","image-keyboard-response","58","116256","0.0-9.0-1.24","tkd7lg","Sat Feb 05 2022 14:11:30 GMT+0100 (Centraleuropæisk normaltid)","2022","2","5","14","11","30","sk09","20","female","left","87","64","50","7","0","","","","","test","fear","fear","f","true"
"null","<div style=""font-size:60px;"">+</div>","null","html-keyboard-response","59","117016","0.0-9.0-0.25","tkd7lg","Sat Feb 05 2022 14:11:30 GMT+0100 (Centraleuropæisk normaltid)","2022","2","5","14","11","30","sk09","20","female","left","87","64","50","7","0","","","","","fixation","","","",""
"587.3000001907349","img/image_stim_h.png","72","image-keyboard-response","60","117606","0.0-9.0-1.25","tkd7lg","Sat Feb 05 2022 14:11:30 GMT+0100 (Centraleuropæisk normaltid)","2022","2","5","14","11","30","sk09","20","female","left","87","64","50","7","0","","","","","test","happy","happy","h","true"
"null","<div style=""font-size:60px;"">+</div>","null","html-keyboard-response","61","119118","0.0-9.0-0.26","tkd7lg","Sat Feb 05 2022 14:11:30 GMT+0100 (Centraleuropæisk normaltid)","2022","2","5","14","11","30","sk09","20","female","left","87","64","50","7","0","","","","","fixation","","","",""
"432.80000019073486","img/image_stim_h_stroop.png","72","image-keyboard-response","62","119554","0.0-9.0-1.26","tkd7lg","Sat Feb 05 2022 14:11:30 GMT+0100 (Centraleuropæisk normaltid)","2022","2","5","14","11","30","sk09","20","female","left","87","64","50","7","0","","","","","test","happy","fear","h","true"
"null","<div style=""font-size:60px;"">+</div>","null","html-keyboard-response","63","121064","0.0-9.0-0.27","tkd7lg","Sat Feb 05 2022 14:11:30 GMT+0100 (Centraleuropæisk normaltid)","2022","2","5","14","11","30","sk09","20","female","left","87","64","50","7","0","","","","","fixation","","","",""
"490.09999990463257","img/image_stim_f_stroop.png","70","image-keyboard-response","64","121555","0.0-9.0-1.27","tkd7lg","Sat Feb 05 2022 14:11:30 GMT+0100 (Centraleuropæisk normaltid)","2022","2","5","14","11","30","sk09","20","female","left","87","64","50","7","0","","","","","test","fear","happy","f","true"
"null","<div style=""font-size:60px;"">+</div>","null","html-keyboard-response","65","122576","0.0-9.0-0.28","tkd7lg","Sat Feb 05 2022 14:11:30 GMT+0100 (Centraleuropæisk normaltid)","2022","2","5","14","11","30","sk09","20","female","left","87","64","50","7","0","","","","","fixation","","","",""
"474.19999980926514","img/image_stim_f.png","70","image-keyboard-response","66","123053","0.0-9.0-1.28","tkd7lg","Sat Feb 05 2022 14:11:30 GMT+0100 (Centraleuropæisk normaltid)","2022","2","5","14","11","30","sk09","20","female","left","87","64","50","7","0","","","","","test","fear","fear","f","true"
"null","<div style=""font-size:60px;"">+</div>","null","html-keyboard-response","67","123574","0.0-9.0-0.29","tkd7lg","Sat Feb 05 2022 14:11:30 GMT+0100 (Centraleuropæisk normaltid)","2022","2","5","14","11","30","sk09","20","female","left","87","64","50","7","0","","","","","fixation","","","",""
"455.19999980926514","img/image_stim_h.png","72","image-keyboard-response","68","124032","0.0-9.0-1.29","tkd7lg","Sat Feb 05 2022 14:11:30 GMT+0100 (Centraleuropæisk normaltid)","2022","2","5","14","11","30","sk09","20","female","left","87","64","50","7","0","","","","","test","happy","happy","h","true"
"null","<div style=""font-size:60px;"">+</div>","null","html-keyboard-response","69","125045","0.0-9.0-0.30","tkd7lg","Sat Feb 05 2022 14:11:30 GMT+0100 (Centraleuropæisk normaltid)","2022","2","5","14","11","30","sk09","20","female","left","87","64","50","7","0","","","","","fixation","","","",""
"603.1999998092651","img/image_stim_f_stroop.png","70","image-keyboard-response","70","125652","0.0-9.0-1.30","tkd7lg","Sat Feb 05 2022 14:11:30 GMT+0100 (Centraleuropæisk normaltid)","2022","2","5","14","11","30","sk09","20","female","left","87","64","50","7","0","","","","","test","fear","happy","f","true"
"null","<div style=""font-size:60px;"">+</div>","null","html-keyboard-response","71","126924","0.0-9.0-0.31","tkd7lg","Sat Feb 05 2022 14:11:30 GMT+0100 (Centraleuropæisk normaltid)","2022","2","5","14","11","30","sk09","20","female","left","87","64","50","7","0","","","","","fixation","","","",""
"340.3999996185303","img/image_stim_h_stroop.png","72","image-keyboard-response","72","127268","0.0-9.0-1.31","tkd7lg","Sat Feb 05 2022 14:11:30 GMT+0100 (Centraleuropæisk normaltid)","2022","2","5","14","11","30","sk09","20","female","left","87","64","50","7","0","","","","","test","happy","fear","h","true"
"null","<div style=""font-size:60px;"">+</div>","null","html-keyboard-response","73","127525","0.0-9.0-0.32","tkd7lg","Sat Feb 05 2022 14:11:30 GMT+0100 (Centraleuropæisk normaltid)","2022","2","5","14","11","30","sk09","20","female","left","87","64","50","7","0","","","","","fixation","","","",""
"523.5999999046326","img/image_stim_f_stroop.png","70","image-keyboard-response","74","128052","0.0-9.0-1.32","tkd7lg","Sat Feb 05 2022 14:11:30 GMT+0100 (Centraleuropæisk normaltid)","2022","2","5","14","11","30","sk09","20","female","left","87","64","50","7","0","","","","","test","fear","happy","f","true"
"null","<div style=""font-size:60px;"">+</div>","null","html-keyboard-response","75","128824","0.0-9.0-0.33","tkd7lg","Sat Feb 05 2022 14:11:30 GMT+0100 (Centraleuropæisk normaltid)","2022","2","5","14","11","30","sk09","20","female","left","87","64","50","7","0","","","","","fixation","","","",""
"595.8000001907349","img/image_stim_f.png","70","image-keyboard-response","76","129422","0.0-9.0-1.33","tkd7lg","Sat Feb 05 2022 14:11:30 GMT+0100 (Centraleuropæisk normaltid)","2022","2","5","14","11","30","sk09","20","female","left","87","64","50","7","0","","","","","test","fear","fear","f","true"
"null","<div style=""font-size:60px;"">+</div>","null","html-keyboard-response","77","130191","0.0-9.0-0.34","tkd7lg","Sat Feb 05 2022 14:11:30 GMT+0100 (Centraleuropæisk normaltid)","2022","2","5","14","11","30","sk09","20","female","left","87","64","50","7","0","","","","","fixation","","","",""
"461","img/image_stim_h.png","72","image-keyboard-response","78","130654","0.0-9.0-1.34","tkd7lg","Sat Feb 05 2022 14:11:30 GMT+0100 (Centraleuropæisk normaltid)","2022","2","5","14","11","30","sk09","20","female","left","87","64","50","7","0","","","","","test","happy","happy","h","true"
"null","<div style=""font-size:60px;"">+</div>","null","html-keyboard-response","79","132173","0.0-9.0-0.35","tkd7lg","Sat Feb 05 2022 14:11:30 GMT+0100 (Centraleuropæisk normaltid)","2022","2","5","14","11","30","sk09","20","female","left","87","64","50","7","0","","","","","fixation","","","",""
"598.8000001907349","img/image_stim_h_stroop.png","72","image-keyboard-response","80","132775","0.0-9.0-1.35","tkd7lg","Sat Feb 05 2022 14:11:30 GMT+0100 (Centraleuropæisk normaltid)","2022","2","5","14","11","30","sk09","20","female","left","87","64","50","7","0","","","","","test","happy","fear","h","true"
