"rt","stimulus","key_press","trial_type","trial_index","time_elapsed","internal_node_id","exp_id","Time","year","month","date","hour","minute","seconds","id","age","Gender","Handedness","mood","fresh","hunger","H_since_Sleep","H_since_Eat","responses","question_order","slider_start","response","test_part","face","word","correct_response","correct"
"2530","<p>Welcome to this experiment on daily rhythms and cognition.</p><p>First you will be asked some questions about yourself.</p><p>Then a short experiment will measure your response time.</p><p>Take the test at different times of the day/night.</p><p>The test is anonymous, but comparing your data across time is important.</p><p>Therefore, please make up and remember a personal ID (two letters+ two numbers).</p><p>Use this ID whenever taking the test.</p><p><strong>Press any key to begin.</strong></p>","32","html-keyboard-response","0","2533","0.0-0.0","lnnjva","Wed Feb 17 2021 11:58:11 GMT+0100 (CET)","2021","2","17","11","58","11","BB16","20","female","right","60","92","43","4","2","","","","","","","","",""
"2925","","","survey-text","1","5482","0.0-1.0","lnnjva","Wed Feb 17 2021 11:58:11 GMT+0100 (CET)","2021","2","17","11","58","11","BB16","20","female","right","60","92","43","4","2","{""Q0"":""BB16""}","","","","","","","",""
"5001.000000000002","","","survey-text","2","10489","0.0-2.0","lnnjva","Wed Feb 17 2021 11:58:11 GMT+0100 (CET)","2021","2","17","11","58","11","BB16","20","female","right","60","92","43","4","2","{""Q0"":""20""}","","","","","","","",""
"3821.999999999998","","","survey-multi-select","3","14314","0.0-3.0","lnnjva","Wed Feb 17 2021 11:58:11 GMT+0100 (CET)","2021","2","17","11","58","11","BB16","20","female","right","60","92","43","4","2","{""Gender"":[""female""],""Hand"":[""right""]}","[0,1]","","","","","","",""
"9116.999999999998","<p>How Sad/Angry or Happy are you right now?</p>","","html-slider-response","4","23433","0.0-4.0","lnnjva","Wed Feb 17 2021 11:58:11 GMT+0100 (CET)","2021","2","17","11","58","11","BB16","20","female","right","60","92","43","4","2","","","50","60","","","","",""
"12151","<p>How Tired/Sleepy/Distracted or Fresh/Awake/Alert are you right now?</p>","","html-slider-response","5","35585","0.0-5.0","lnnjva","Wed Feb 17 2021 11:58:11 GMT+0100 (CET)","2021","2","17","11","58","11","BB16","20","female","right","60","92","43","4","2","","","50","92","","","","",""
"7527","<p>How Hungry or Satiated are you right now?</p>","","html-slider-response","6","43113","0.0-6.0","lnnjva","Wed Feb 17 2021 11:58:11 GMT+0100 (CET)","2021","2","17","11","58","11","BB16","20","female","right","60","92","43","4","2","","","50","43","","","","",""
"222831","","","survey-multi-select","7","265947","0.0-7.0","lnnjva","Wed Feb 17 2021 11:58:11 GMT+0100 (CET)","2021","2","17","11","58","11","BB16","20","female","right","60","92","43","4","2","{""Sleep"":[""4""],""Eat"":[""2""]}","[0,1]","","","","","","",""
"1611.9999999999418","<p>In this experiment, a face and a word will appear in the center of the screen.</p><p>If the face is <strong>happy</strong>, press the letter <strong>H</strong> with <strong>right</strong> index finger.</p><p>If the face is <strong>fearful</strong>, press the letter <strong>F</strong> with <strong>left</strong> index finger.</p><p><strong>Ignore the written words</strong>. Respond as fast as possible while being correct. </p><div style='width: 900px;'><div style='float: left;'><img src='img/stimuli_stroop_happy.png'></img><p class='small'><strong>Press the H key for happy faces</strong></p></div><div class='float: right;'><img src='img/stimuli_stroop_fear.png'></img><p class='small'><strong>Press the F key for faces with fear</strong></p></div></div><p>If the screen turns blank, press <strong>SPACE</strong></p><p><strong>Press any key to begin.</strong></p>","32","html-keyboard-response","8","267560","0.0-8.0","lnnjva","Wed Feb 17 2021 11:58:11 GMT+0100 (CET)","2021","2","17","11","58","11","BB16","20","female","right","60","92","43","4","2","","","","","","","","",""
"null","<div style=""font-size:60px;"">+</div>","null","html-keyboard-response","9","269813","0.0-9.0-0.0","lnnjva","Wed Feb 17 2021 11:58:11 GMT+0100 (CET)","2021","2","17","11","58","11","BB16","20","female","right","60","92","43","4","2","","","","","fixation","","","",""
"495.0000000000582","img/image_stim_f.png","70","image-keyboard-response","10","270311","0.0-9.0-1.0","lnnjva","Wed Feb 17 2021 11:58:11 GMT+0100 (CET)","2021","2","17","11","58","11","BB16","20","female","right","60","92","43","4","2","","","","","test","fear","fear","f","true"
"null","<div style=""font-size:60px;"">+</div>","null","html-keyboard-response","11","272064","0.0-9.0-0.1","lnnjva","Wed Feb 17 2021 11:58:11 GMT+0100 (CET)","2021","2","17","11","58","11","BB16","20","female","right","60","92","43","4","2","","","","","fixation","","","",""
"468","img/image_stim_f_stroop.png","70","image-keyboard-response","12","272534","0.0-9.0-1.1","lnnjva","Wed Feb 17 2021 11:58:11 GMT+0100 (CET)","2021","2","17","11","58","11","BB16","20","female","right","60","92","43","4","2","","","","","test","fear","happy","f","true"
"null","<div style=""font-size:60px;"">+</div>","null","html-keyboard-response","13","273788","0.0-9.0-0.2","lnnjva","Wed Feb 17 2021 11:58:11 GMT+0100 (CET)","2021","2","17","11","58","11","BB16","20","female","right","60","92","43","4","2","","","","","fixation","","","",""
"424","img/image_stim_h.png","72","image-keyboard-response","14","274214","0.0-9.0-1.2","lnnjva","Wed Feb 17 2021 11:58:11 GMT+0100 (CET)","2021","2","17","11","58","11","BB16","20","female","right","60","92","43","4","2","","","","","test","happy","happy","h","true"
"null","<div style=""font-size:60px;"">+</div>","null","html-keyboard-response","15","274967","0.0-9.0-0.3","lnnjva","Wed Feb 17 2021 11:58:11 GMT+0100 (CET)","2021","2","17","11","58","11","BB16","20","female","right","60","92","43","4","2","","","","","fixation","","","",""
"411","img/image_stim_h_stroop.png","72","image-keyboard-response","16","275382","0.0-9.0-1.3","lnnjva","Wed Feb 17 2021 11:58:11 GMT+0100 (CET)","2021","2","17","11","58","11","BB16","20","female","right","60","92","43","4","2","","","","","test","happy","fear","h","true"
"null","<div style=""font-size:60px;"">+</div>","null","html-keyboard-response","17","275883","0.0-9.0-0.4","lnnjva","Wed Feb 17 2021 11:58:11 GMT+0100 (CET)","2021","2","17","11","58","11","BB16","20","female","right","60","92","43","4","2","","","","","fixation","","","",""
"388","img/image_stim_h.png","72","image-keyboard-response","18","276273","0.0-9.0-1.4","lnnjva","Wed Feb 17 2021 11:58:11 GMT+0100 (CET)","2021","2","17","11","58","11","BB16","20","female","right","60","92","43","4","2","","","","","test","happy","happy","h","true"
"null","<div style=""font-size:60px;"">+</div>","null","html-keyboard-response","19","277024","0.0-9.0-0.5","lnnjva","Wed Feb 17 2021 11:58:11 GMT+0100 (CET)","2021","2","17","11","58","11","BB16","20","female","right","60","92","43","4","2","","","","","fixation","","","",""
"433","img/image_stim_f_stroop.png","70","image-keyboard-response","20","277459","0.0-9.0-1.5","lnnjva","Wed Feb 17 2021 11:58:11 GMT+0100 (CET)","2021","2","17","11","58","11","BB16","20","female","right","60","92","43","4","2","","","","","test","fear","happy","f","true"
"null","<div style=""font-size:60px;"">+</div>","null","html-keyboard-response","21","279211","0.0-9.0-0.6","lnnjva","Wed Feb 17 2021 11:58:11 GMT+0100 (CET)","2021","2","17","11","58","11","BB16","20","female","right","60","92","43","4","2","","","","","fixation","","","",""
"580.0000000000582","img/image_stim_f.png","70","image-keyboard-response","22","279793","0.0-9.0-1.6","lnnjva","Wed Feb 17 2021 11:58:11 GMT+0100 (CET)","2021","2","17","11","58","11","BB16","20","female","right","60","92","43","4","2","","","","","test","fear","fear","f","true"
"null","<div style=""font-size:60px;"">+</div>","null","html-keyboard-response","23","280546","0.0-9.0-0.7","lnnjva","Wed Feb 17 2021 11:58:11 GMT+0100 (CET)","2021","2","17","11","58","11","BB16","20","female","right","60","92","43","4","2","","","","","fixation","","","",""
"469","img/image_stim_h_stroop.png","72","image-keyboard-response","24","281017","0.0-9.0-1.7","lnnjva","Wed Feb 17 2021 11:58:11 GMT+0100 (CET)","2021","2","17","11","58","11","BB16","20","female","right","60","92","43","4","2","","","","","test","happy","fear","h","true"
"null","<div style=""font-size:60px;"">+</div>","null","html-keyboard-response","25","282519","0.0-9.0-0.8","lnnjva","Wed Feb 17 2021 11:58:11 GMT+0100 (CET)","2021","2","17","11","58","11","BB16","20","female","right","60","92","43","4","2","","","","","fixation","","","",""
"958","img/image_stim_h_stroop.png","72","image-keyboard-response","26","283478","0.0-9.0-1.8","lnnjva","Wed Feb 17 2021 11:58:11 GMT+0100 (CET)","2021","2","17","11","58","11","BB16","20","female","right","60","92","43","4","2","","","","","test","happy","fear","h","true"
"null","<div style=""font-size:60px;"">+</div>","null","html-keyboard-response","27","284981","0.0-9.0-0.9","lnnjva","Wed Feb 17 2021 11:58:11 GMT+0100 (CET)","2021","2","17","11","58","11","BB16","20","female","right","60","92","43","4","2","","","","","fixation","","","",""
"477.9999999999418","img/image_stim_h.png","72","image-keyboard-response","28","285462","0.0-9.0-1.9","lnnjva","Wed Feb 17 2021 11:58:11 GMT+0100 (CET)","2021","2","17","11","58","11","BB16","20","female","right","60","92","43","4","2","","","","","test","happy","happy","h","true"
"null","<div style=""font-size:60px;"">+</div>","null","html-keyboard-response","29","287466","0.0-9.0-0.10","lnnjva","Wed Feb 17 2021 11:58:11 GMT+0100 (CET)","2021","2","17","11","58","11","BB16","20","female","right","60","92","43","4","2","","","","","fixation","","","",""
"458","img/image_stim_f.png","70","image-keyboard-response","30","287926","0.0-9.0-1.10","lnnjva","Wed Feb 17 2021 11:58:11 GMT+0100 (CET)","2021","2","17","11","58","11","BB16","20","female","right","60","92","43","4","2","","","","","test","fear","fear","f","true"
"null","<div style=""font-size:60px;"">+</div>","null","html-keyboard-response","31","289930","0.0-9.0-0.11","lnnjva","Wed Feb 17 2021 11:58:11 GMT+0100 (CET)","2021","2","17","11","58","11","BB16","20","female","right","60","92","43","4","2","","","","","fixation","","","",""
"481","img/image_stim_f_stroop.png","70","image-keyboard-response","32","290413","0.0-9.0-1.11","lnnjva","Wed Feb 17 2021 11:58:11 GMT+0100 (CET)","2021","2","17","11","58","11","BB16","20","female","right","60","92","43","4","2","","","","","test","fear","happy","f","true"
"null","<div style=""font-size:60px;"">+</div>","null","html-keyboard-response","33","291666","0.0-9.0-0.12","lnnjva","Wed Feb 17 2021 11:58:11 GMT+0100 (CET)","2021","2","17","11","58","11","BB16","20","female","right","60","92","43","4","2","","","","","fixation","","","",""
"404","img/image_stim_h_stroop.png","72","image-keyboard-response","34","292073","0.0-9.0-1.12","lnnjva","Wed Feb 17 2021 11:58:11 GMT+0100 (CET)","2021","2","17","11","58","11","BB16","20","female","right","60","92","43","4","2","","","","","test","happy","fear","h","true"
"null","<div style=""font-size:60px;"">+</div>","null","html-keyboard-response","35","292576","0.0-9.0-0.13","lnnjva","Wed Feb 17 2021 11:58:11 GMT+0100 (CET)","2021","2","17","11","58","11","BB16","20","female","right","60","92","43","4","2","","","","","fixation","","","",""
"403","img/image_stim_f.png","72","image-keyboard-response","36","292980","0.0-9.0-1.13","lnnjva","Wed Feb 17 2021 11:58:11 GMT+0100 (CET)","2021","2","17","11","58","11","BB16","20","female","right","60","92","43","4","2","","","","","test","fear","fear","f","false"
"null","<div style=""font-size:60px;"">+</div>","null","html-keyboard-response","37","293982","0.0-9.0-0.14","lnnjva","Wed Feb 17 2021 11:58:11 GMT+0100 (CET)","2021","2","17","11","58","11","BB16","20","female","right","60","92","43","4","2","","","","","fixation","","","",""
"452","img/image_stim_f_stroop.png","70","image-keyboard-response","38","294436","0.0-9.0-1.14","lnnjva","Wed Feb 17 2021 11:58:11 GMT+0100 (CET)","2021","2","17","11","58","11","BB16","20","female","right","60","92","43","4","2","","","","","test","fear","happy","f","true"
"null","<div style=""font-size:60px;"">+</div>","null","html-keyboard-response","39","294689","0.0-9.0-0.15","lnnjva","Wed Feb 17 2021 11:58:11 GMT+0100 (CET)","2021","2","17","11","58","11","BB16","20","female","right","60","92","43","4","2","","","","","fixation","","","",""
"532","img/image_stim_h.png","72","image-keyboard-response","40","295222","0.0-9.0-1.15","lnnjva","Wed Feb 17 2021 11:58:11 GMT+0100 (CET)","2021","2","17","11","58","11","BB16","20","female","right","60","92","43","4","2","","","","","test","happy","happy","h","true"
"null","<div style=""font-size:60px;"">+</div>","null","html-keyboard-response","41","297225","0.0-9.0-0.16","lnnjva","Wed Feb 17 2021 11:58:11 GMT+0100 (CET)","2021","2","17","11","58","11","BB16","20","female","right","60","92","43","4","2","","","","","fixation","","","",""
"500","img/image_stim_f_stroop.png","70","image-keyboard-response","42","297727","0.0-9.0-1.16","lnnjva","Wed Feb 17 2021 11:58:11 GMT+0100 (CET)","2021","2","17","11","58","11","BB16","20","female","right","60","92","43","4","2","","","","","test","fear","happy","f","true"
"null","<div style=""font-size:60px;"">+</div>","null","html-keyboard-response","43","297980","0.0-9.0-0.17","lnnjva","Wed Feb 17 2021 11:58:11 GMT+0100 (CET)","2021","2","17","11","58","11","BB16","20","female","right","60","92","43","4","2","","","","","fixation","","","",""
"472","img/image_stim_h_stroop.png","72","image-keyboard-response","44","298454","0.0-9.0-1.17","lnnjva","Wed Feb 17 2021 11:58:11 GMT+0100 (CET)","2021","2","17","11","58","11","BB16","20","female","right","60","92","43","4","2","","","","","test","happy","fear","h","true"
"null","<div style=""font-size:60px;"">+</div>","null","html-keyboard-response","45","298707","0.0-9.0-0.18","lnnjva","Wed Feb 17 2021 11:58:11 GMT+0100 (CET)","2021","2","17","11","58","11","BB16","20","female","right","60","92","43","4","2","","","","","fixation","","","",""
"550","img/image_stim_h.png","72","image-keyboard-response","46","299258","0.0-9.0-1.18","lnnjva","Wed Feb 17 2021 11:58:11 GMT+0100 (CET)","2021","2","17","11","58","11","BB16","20","female","right","60","92","43","4","2","","","","","test","happy","happy","h","true"
"null","<div style=""font-size:60px;"">+</div>","null","html-keyboard-response","47","301011","0.0-9.0-0.19","lnnjva","Wed Feb 17 2021 11:58:11 GMT+0100 (CET)","2021","2","17","11","58","11","BB16","20","female","right","60","92","43","4","2","","","","","fixation","","","",""
"452","img/image_stim_f.png","70","image-keyboard-response","48","301466","0.0-9.0-1.19","lnnjva","Wed Feb 17 2021 11:58:11 GMT+0100 (CET)","2021","2","17","11","58","11","BB16","20","female","right","60","92","43","4","2","","","","","test","fear","fear","f","true"
"null","<div style=""font-size:60px;"">+</div>","null","html-keyboard-response","49","301718","0.0-9.0-0.20","lnnjva","Wed Feb 17 2021 11:58:11 GMT+0100 (CET)","2021","2","17","11","58","11","BB16","20","female","right","60","92","43","4","2","","","","","fixation","","","",""
"451","img/image_stim_f.png","70","image-keyboard-response","50","302170","0.0-9.0-1.20","lnnjva","Wed Feb 17 2021 11:58:11 GMT+0100 (CET)","2021","2","17","11","58","11","BB16","20","female","right","60","92","43","4","2","","","","","test","fear","fear","f","true"
"null","<div style=""font-size:60px;"">+</div>","null","html-keyboard-response","51","303673","0.0-9.0-0.21","lnnjva","Wed Feb 17 2021 11:58:11 GMT+0100 (CET)","2021","2","17","11","58","11","BB16","20","female","right","60","92","43","4","2","","","","","fixation","","","",""
"464","img/image_stim_f_stroop.png","70","image-keyboard-response","52","304139","0.0-9.0-1.21","lnnjva","Wed Feb 17 2021 11:58:11 GMT+0100 (CET)","2021","2","17","11","58","11","BB16","20","female","right","60","92","43","4","2","","","","","test","fear","happy","f","true"
"null","<div style=""font-size:60px;"">+</div>","null","html-keyboard-response","53","304391","0.0-9.0-0.22","lnnjva","Wed Feb 17 2021 11:58:11 GMT+0100 (CET)","2021","2","17","11","58","11","BB16","20","female","right","60","92","43","4","2","","","","","fixation","","","",""
"458","img/image_stim_h_stroop.png","72","image-keyboard-response","54","304852","0.0-9.0-1.22","lnnjva","Wed Feb 17 2021 11:58:11 GMT+0100 (CET)","2021","2","17","11","58","11","BB16","20","female","right","60","92","43","4","2","","","","","test","happy","fear","h","true"
"null","<div style=""font-size:60px;"">+</div>","null","html-keyboard-response","55","305605","0.0-9.0-0.23","lnnjva","Wed Feb 17 2021 11:58:11 GMT+0100 (CET)","2021","2","17","11","58","11","BB16","20","female","right","60","92","43","4","2","","","","","fixation","","","",""
"473","img/image_stim_h.png","72","image-keyboard-response","56","306079","0.0-9.0-1.23","lnnjva","Wed Feb 17 2021 11:58:11 GMT+0100 (CET)","2021","2","17","11","58","11","BB16","20","female","right","60","92","43","4","2","","","","","test","happy","happy","h","true"
"null","<div style=""font-size:60px;"">+</div>","null","html-keyboard-response","57","306332","0.0-9.0-0.24","lnnjva","Wed Feb 17 2021 11:58:11 GMT+0100 (CET)","2021","2","17","11","58","11","BB16","20","female","right","60","92","43","4","2","","","","","fixation","","","",""
"453.9999999999418","img/image_stim_h.png","72","image-keyboard-response","58","306789","0.0-9.0-1.24","lnnjva","Wed Feb 17 2021 11:58:11 GMT+0100 (CET)","2021","2","17","11","58","11","BB16","20","female","right","60","92","43","4","2","","","","","test","happy","happy","h","true"
"null","<div style=""font-size:60px;"">+</div>","null","html-keyboard-response","59","308541","0.0-9.0-0.25","lnnjva","Wed Feb 17 2021 11:58:11 GMT+0100 (CET)","2021","2","17","11","58","11","BB16","20","female","right","60","92","43","4","2","","","","","fixation","","","",""
"489.9999999999418","img/image_stim_f.png","70","image-keyboard-response","60","309033","0.0-9.0-1.25","lnnjva","Wed Feb 17 2021 11:58:11 GMT+0100 (CET)","2021","2","17","11","58","11","BB16","20","female","right","60","92","43","4","2","","","","","test","fear","fear","f","true"
"null","<div style=""font-size:60px;"">+</div>","null","html-keyboard-response","61","310287","0.0-9.0-0.26","lnnjva","Wed Feb 17 2021 11:58:11 GMT+0100 (CET)","2021","2","17","11","58","11","BB16","20","female","right","60","92","43","4","2","","","","","fixation","","","",""
"490","img/image_stim_f_stroop.png","70","image-keyboard-response","62","310779","0.0-9.0-1.26","lnnjva","Wed Feb 17 2021 11:58:11 GMT+0100 (CET)","2021","2","17","11","58","11","BB16","20","female","right","60","92","43","4","2","","","","","test","fear","happy","f","true"
"null","<div style=""font-size:60px;"">+</div>","null","html-keyboard-response","63","311533","0.0-9.0-0.27","lnnjva","Wed Feb 17 2021 11:58:11 GMT+0100 (CET)","2021","2","17","11","58","11","BB16","20","female","right","60","92","43","4","2","","","","","fixation","","","",""
"533","img/image_stim_h_stroop.png","72","image-keyboard-response","64","312067","0.0-9.0-1.27","lnnjva","Wed Feb 17 2021 11:58:11 GMT+0100 (CET)","2021","2","17","11","58","11","BB16","20","female","right","60","92","43","4","2","","","","","test","happy","fear","h","true"
"null","<div style=""font-size:60px;"">+</div>","null","html-keyboard-response","65","312571","0.0-9.0-0.28","lnnjva","Wed Feb 17 2021 11:58:11 GMT+0100 (CET)","2021","2","17","11","58","11","BB16","20","female","right","60","92","43","4","2","","","","","fixation","","","",""
"509.9999999999418","img/image_stim_f_stroop.png","70","image-keyboard-response","66","313082","0.0-9.0-1.28","lnnjva","Wed Feb 17 2021 11:58:11 GMT+0100 (CET)","2021","2","17","11","58","11","BB16","20","female","right","60","92","43","4","2","","","","","test","fear","happy","f","true"
"null","<div style=""font-size:60px;"">+</div>","null","html-keyboard-response","67","314586","0.0-9.0-0.29","lnnjva","Wed Feb 17 2021 11:58:11 GMT+0100 (CET)","2021","2","17","11","58","11","BB16","20","female","right","60","92","43","4","2","","","","","fixation","","","",""
"481","img/image_stim_f.png","70","image-keyboard-response","68","315068","0.0-9.0-1.29","lnnjva","Wed Feb 17 2021 11:58:11 GMT+0100 (CET)","2021","2","17","11","58","11","BB16","20","female","right","60","92","43","4","2","","","","","test","fear","fear","f","true"
"null","<div style=""font-size:60px;"">+</div>","null","html-keyboard-response","69","316822","0.0-9.0-0.30","lnnjva","Wed Feb 17 2021 11:58:11 GMT+0100 (CET)","2021","2","17","11","58","11","BB16","20","female","right","60","92","43","4","2","","","","","fixation","","","",""
"585","img/image_stim_h_stroop.png","72","image-keyboard-response","70","317408","0.0-9.0-1.30","lnnjva","Wed Feb 17 2021 11:58:11 GMT+0100 (CET)","2021","2","17","11","58","11","BB16","20","female","right","60","92","43","4","2","","","","","test","happy","fear","h","true"
"null","<div style=""font-size:60px;"">+</div>","null","html-keyboard-response","71","317661","0.0-9.0-0.31","lnnjva","Wed Feb 17 2021 11:58:11 GMT+0100 (CET)","2021","2","17","11","58","11","BB16","20","female","right","60","92","43","4","2","","","","","fixation","","","",""
"567","img/image_stim_h.png","72","image-keyboard-response","72","318229","0.0-9.0-1.31","lnnjva","Wed Feb 17 2021 11:58:11 GMT+0100 (CET)","2021","2","17","11","58","11","BB16","20","female","right","60","92","43","4","2","","","","","test","happy","happy","h","true"
"null","<div style=""font-size:60px;"">+</div>","null","html-keyboard-response","73","319482","0.0-9.0-0.32","lnnjva","Wed Feb 17 2021 11:58:11 GMT+0100 (CET)","2021","2","17","11","58","11","BB16","20","female","right","60","92","43","4","2","","","","","fixation","","","",""
"510","img/image_stim_f_stroop.png","70","image-keyboard-response","74","319994","0.0-9.0-1.32","lnnjva","Wed Feb 17 2021 11:58:11 GMT+0100 (CET)","2021","2","17","11","58","11","BB16","20","female","right","60","92","43","4","2","","","","","test","fear","happy","f","true"
"null","<div style=""font-size:60px;"">+</div>","null","html-keyboard-response","75","320246","0.0-9.0-0.33","lnnjva","Wed Feb 17 2021 11:58:11 GMT+0100 (CET)","2021","2","17","11","58","11","BB16","20","female","right","60","92","43","4","2","","","","","fixation","","","",""
"420.0000000000582","img/image_stim_f.png","70","image-keyboard-response","76","320668","0.0-9.0-1.33","lnnjva","Wed Feb 17 2021 11:58:11 GMT+0100 (CET)","2021","2","17","11","58","11","BB16","20","female","right","60","92","43","4","2","","","","","test","fear","fear","f","true"
"null","<div style=""font-size:60px;"">+</div>","null","html-keyboard-response","77","322421","0.0-9.0-0.34","lnnjva","Wed Feb 17 2021 11:58:11 GMT+0100 (CET)","2021","2","17","11","58","11","BB16","20","female","right","60","92","43","4","2","","","","","fixation","","","",""
"493.9999999999418","img/image_stim_h_stroop.png","72","image-keyboard-response","78","322917","0.0-9.0-1.34","lnnjva","Wed Feb 17 2021 11:58:11 GMT+0100 (CET)","2021","2","17","11","58","11","BB16","20","female","right","60","92","43","4","2","","","","","test","happy","fear","h","true"
"null","<div style=""font-size:60px;"">+</div>","null","html-keyboard-response","79","323921","0.0-9.0-0.35","lnnjva","Wed Feb 17 2021 11:58:11 GMT+0100 (CET)","2021","2","17","11","58","11","BB16","20","female","right","60","92","43","4","2","","","","","fixation","","","",""
"447","img/image_stim_h.png","72","image-keyboard-response","80","324370","0.0-9.0-1.35","lnnjva","Wed Feb 17 2021 11:58:11 GMT+0100 (CET)","2021","2","17","11","58","11","BB16","20","female","right","60","92","43","4","2","","","","","test","happy","happy","h","true"
