"rt","stimulus","key_press","trial_type","trial_index","time_elapsed","internal_node_id","exp_id","Time","year","month","date","hour","minute","seconds","id","age","Gender","Handedness","mood","fresh","hunger","H_since_Sleep","H_since_Eat","responses","question_order","slider_start","response","test_part","face","word","correct_response","correct"
"1084.6350000065286","<p>Welcome to this experiment on daily rhythms and cognition.</p><p>First you will be asked some questions about yourself.</p><p>Then a short experiment will measure your response time.</p><p>Take the test at different times of the day/night.</p><p>The test is anonymous, but comparing your data across time is important.</p><p>Therefore, please make up and remember a personal ID (two letters+ two numbers).</p><p>Use this ID whenever taking the test.</p><p><strong>Press any key to begin.</strong></p>","32","html-keyboard-response","0","1087","0.0-0.0","o3elcb","Tue Feb 16 2021 13:05:39 GMT+0100 (Central European Standard Time)","2021","2","16","13","5","39","um12","19","female","right","72","56","19","1","15","","","","","","","","",""
"4113.635000001523","","","survey-text","1","5211","0.0-1.0","o3elcb","Tue Feb 16 2021 13:05:39 GMT+0100 (Central European Standard Time)","2021","2","16","13","5","39","um12","19","female","right","72","56","19","1","15","{""Q0"":""um12""}","","","","","","","",""
"1519.2649999953574","","","survey-text","2","6743","0.0-2.0","o3elcb","Tue Feb 16 2021 13:05:39 GMT+0100 (Central European Standard Time)","2021","2","16","13","5","39","um12","19","female","right","72","56","19","1","15","{""Q0"":""19""}","","","","","","","",""
"3793.7649999948917","","","survey-multi-select","3","10545","0.0-3.0","o3elcb","Tue Feb 16 2021 13:05:39 GMT+0100 (Central European Standard Time)","2021","2","16","13","5","39","um12","19","female","right","72","56","19","1","15","{""Gender"":[""female""],""Hand"":[""right""]}","[0,1]","","","","","","",""
"2752.330000002985","<p>How Sad/Angry or Happy are you right now?</p>","","html-slider-response","4","13311","0.0-4.0","o3elcb","Tue Feb 16 2021 13:05:39 GMT+0100 (Central European Standard Time)","2021","2","16","13","5","39","um12","19","female","right","72","56","19","1","15","","","50","72","","","","",""
"3932.6700000092387","<p>How Tired/Sleepy/Distracted or Fresh/Awake/Alert are you right now?</p>","","html-slider-response","5","17246","0.0-5.0","o3elcb","Tue Feb 16 2021 13:05:39 GMT+0100 (Central European Standard Time)","2021","2","16","13","5","39","um12","19","female","right","72","56","19","1","15","","","50","56","","","","",""
"5104.129999992438","<p>How Hungry or Satiated are you right now?</p>","","html-slider-response","6","22352","0.0-6.0","o3elcb","Tue Feb 16 2021 13:05:39 GMT+0100 (Central European Standard Time)","2021","2","16","13","5","39","um12","19","female","right","72","56","19","1","15","","","50","19","","","","",""
"19912.530000001425","","","survey-multi-select","7","42288","0.0-7.0","o3elcb","Tue Feb 16 2021 13:05:39 GMT+0100 (Central European Standard Time)","2021","2","16","13","5","39","um12","19","female","right","72","56","19","1","15","{""Sleep"":[""1""],""Eat"":[""15""]}","[0,1]","","","","","","",""
"1095.0699999957578","<p>In this experiment, a face and a word will appear in the center of the screen.</p><p>If the face is <strong>happy</strong>, press the letter <strong>H</strong> with <strong>right</strong> index finger.</p><p>If the face is <strong>fearful</strong>, press the letter <strong>F</strong> with <strong>left</strong> index finger.</p><p><strong>Ignore the written words</strong>. Respond as fast as possible while being correct. </p><div style='width: 900px;'><div style='float: left;'><img src='img/stimuli_stroop_happy.png'></img><p class='small'><strong>Press the H key for happy faces</strong></p></div><div class='float: right;'><img src='img/stimuli_stroop_fear.png'></img><p class='small'><strong>Press the F key for faces with fear</strong></p></div></div><p>If the screen turns blank, press <strong>SPACE</strong></p><p><strong>Press any key to begin.</strong></p>","32","html-keyboard-response","8","43392","0.0-8.0","o3elcb","Tue Feb 16 2021 13:05:39 GMT+0100 (Central European Standard Time)","2021","2","16","13","5","39","um12","19","female","right","72","56","19","1","15","","","","","","","","",""
"null","<div style=""font-size:60px;"">+</div>","null","html-keyboard-response","9","46398","0.0-9.0-0.0","o3elcb","Tue Feb 16 2021 13:05:39 GMT+0100 (Central European Standard Time)","2021","2","16","13","5","39","um12","19","female","right","72","56","19","1","15","","","","","fixation","","","",""
"928.3699999941746","img/image_stim_f.png","70","image-keyboard-response","10","47329","0.0-9.0-1.0","o3elcb","Tue Feb 16 2021 13:05:39 GMT+0100 (Central European Standard Time)","2021","2","16","13","5","39","um12","19","female","right","72","56","19","1","15","","","","","test","fear","fear","f","true"
"null","<div style=""font-size:60px;"">+</div>","null","html-keyboard-response","11","48837","0.0-9.0-0.1","o3elcb","Tue Feb 16 2021 13:05:39 GMT+0100 (Central European Standard Time)","2021","2","16","13","5","39","um12","19","female","right","72","56","19","1","15","","","","","fixation","","","",""
"438.3949999901233","img/image_stim_h.png","72","image-keyboard-response","12","49277","0.0-9.0-1.1","o3elcb","Tue Feb 16 2021 13:05:39 GMT+0100 (Central European Standard Time)","2021","2","16","13","5","39","um12","19","female","right","72","56","19","1","15","","","","","test","happy","happy","h","true"
"null","<div style=""font-size:60px;"">+</div>","null","html-keyboard-response","13","49779","0.0-9.0-0.2","o3elcb","Tue Feb 16 2021 13:05:39 GMT+0100 (Central European Standard Time)","2021","2","16","13","5","39","um12","19","female","right","72","56","19","1","15","","","","","fixation","","","",""
"605.1650000008522","img/image_stim_h_stroop.png","72","image-keyboard-response","14","50386","0.0-9.0-1.2","o3elcb","Tue Feb 16 2021 13:05:39 GMT+0100 (Central European Standard Time)","2021","2","16","13","5","39","um12","19","female","right","72","56","19","1","15","","","","","test","happy","fear","h","true"
"null","<div style=""font-size:60px;"">+</div>","null","html-keyboard-response","15","52142","0.0-9.0-0.3","o3elcb","Tue Feb 16 2021 13:05:39 GMT+0100 (Central European Standard Time)","2021","2","16","13","5","39","um12","19","female","right","72","56","19","1","15","","","","","fixation","","","",""
"442.9200000013225","img/image_stim_f_stroop.png","70","image-keyboard-response","16","52587","0.0-9.0-1.3","o3elcb","Tue Feb 16 2021 13:05:39 GMT+0100 (Central European Standard Time)","2021","2","16","13","5","39","um12","19","female","right","72","56","19","1","15","","","","","test","fear","happy","f","true"
"null","<div style=""font-size:60px;"">+</div>","null","html-keyboard-response","17","53597","0.0-9.0-0.4","o3elcb","Tue Feb 16 2021 13:05:39 GMT+0100 (Central European Standard Time)","2021","2","16","13","5","39","um12","19","female","right","72","56","19","1","15","","","","","fixation","","","",""
"480.38500000257045","img/image_stim_f.png","70","image-keyboard-response","18","54079","0.0-9.0-1.4","o3elcb","Tue Feb 16 2021 13:05:39 GMT+0100 (Central European Standard Time)","2021","2","16","13","5","39","um12","19","female","right","72","56","19","1","15","","","","","test","fear","fear","f","true"
"null","<div style=""font-size:60px;"">+</div>","null","html-keyboard-response","19","54835","0.0-9.0-0.5","o3elcb","Tue Feb 16 2021 13:05:39 GMT+0100 (Central European Standard Time)","2021","2","16","13","5","39","um12","19","female","right","72","56","19","1","15","","","","","fixation","","","",""
"457.7699999936158","img/image_stim_h.png","72","image-keyboard-response","20","55294","0.0-9.0-1.5","o3elcb","Tue Feb 16 2021 13:05:39 GMT+0100 (Central European Standard Time)","2021","2","16","13","5","39","um12","19","female","right","72","56","19","1","15","","","","","test","happy","happy","h","true"
"null","<div style=""font-size:60px;"">+</div>","null","html-keyboard-response","21","56551","0.0-9.0-0.6","o3elcb","Tue Feb 16 2021 13:05:39 GMT+0100 (Central European Standard Time)","2021","2","16","13","5","39","um12","19","female","right","72","56","19","1","15","","","","","fixation","","","",""
"540.1549999951385","img/image_stim_f_stroop.png","70","image-keyboard-response","22","57092","0.0-9.0-1.6","o3elcb","Tue Feb 16 2021 13:05:39 GMT+0100 (Central European Standard Time)","2021","2","16","13","5","39","um12","19","female","right","72","56","19","1","15","","","","","test","fear","happy","f","true"
"null","<div style=""font-size:60px;"">+</div>","null","html-keyboard-response","23","58853","0.0-9.0-0.7","o3elcb","Tue Feb 16 2021 13:05:39 GMT+0100 (Central European Standard Time)","2021","2","16","13","5","39","um12","19","female","right","72","56","19","1","15","","","","","fixation","","","",""
"571.3050000049407","img/image_stim_h_stroop.png","72","image-keyboard-response","24","59427","0.0-9.0-1.7","o3elcb","Tue Feb 16 2021 13:05:39 GMT+0100 (Central European Standard Time)","2021","2","16","13","5","39","um12","19","female","right","72","56","19","1","15","","","","","test","happy","fear","h","true"
"null","<div style=""font-size:60px;"">+</div>","null","html-keyboard-response","25","60680","0.0-9.0-0.8","o3elcb","Tue Feb 16 2021 13:05:39 GMT+0100 (Central European Standard Time)","2021","2","16","13","5","39","um12","19","female","right","72","56","19","1","15","","","","","fixation","","","",""
"376.2350000033621","img/image_stim_h_stroop.png","72","image-keyboard-response","26","61058","0.0-9.0-1.8","o3elcb","Tue Feb 16 2021 13:05:39 GMT+0100 (Central European Standard Time)","2021","2","16","13","5","39","um12","19","female","right","72","56","19","1","15","","","","","test","happy","fear","h","true"
"null","<div style=""font-size:60px;"">+</div>","null","html-keyboard-response","27","62562","0.0-9.0-0.9","o3elcb","Tue Feb 16 2021 13:05:39 GMT+0100 (Central European Standard Time)","2021","2","16","13","5","39","um12","19","female","right","72","56","19","1","15","","","","","fixation","","","",""
"409.75000000617","img/image_stim_h.png","72","image-keyboard-response","28","62973","0.0-9.0-1.9","o3elcb","Tue Feb 16 2021 13:05:39 GMT+0100 (Central European Standard Time)","2021","2","16","13","5","39","um12","19","female","right","72","56","19","1","15","","","","","test","happy","happy","h","true"
"null","<div style=""font-size:60px;"">+</div>","null","html-keyboard-response","29","64730","0.0-9.0-0.10","o3elcb","Tue Feb 16 2021 13:05:39 GMT+0100 (Central European Standard Time)","2021","2","16","13","5","39","um12","19","female","right","72","56","19","1","15","","","","","fixation","","","",""
"380.36000001011416","img/image_stim_f_stroop.png","70","image-keyboard-response","30","65112","0.0-9.0-1.10","o3elcb","Tue Feb 16 2021 13:05:39 GMT+0100 (Central European Standard Time)","2021","2","16","13","5","39","um12","19","female","right","72","56","19","1","15","","","","","test","fear","happy","f","true"
"null","<div style=""font-size:60px;"">+</div>","null","html-keyboard-response","31","66623","0.0-9.0-0.11","o3elcb","Tue Feb 16 2021 13:05:39 GMT+0100 (Central European Standard Time)","2021","2","16","13","5","39","um12","19","female","right","72","56","19","1","15","","","","","fixation","","","",""
"386.9600000034552","img/image_stim_f.png","70","image-keyboard-response","32","67011","0.0-9.0-1.11","o3elcb","Tue Feb 16 2021 13:05:39 GMT+0100 (Central European Standard Time)","2021","2","16","13","5","39","um12","19","female","right","72","56","19","1","15","","","","","test","fear","fear","f","true"
"null","<div style=""font-size:60px;"">+</div>","null","html-keyboard-response","33","67770","0.0-9.0-0.12","o3elcb","Tue Feb 16 2021 13:05:39 GMT+0100 (Central European Standard Time)","2021","2","16","13","5","39","um12","19","female","right","72","56","19","1","15","","","","","fixation","","","",""
"402.53500000108033","img/image_stim_f.png","70","image-keyboard-response","34","68174","0.0-9.0-1.12","o3elcb","Tue Feb 16 2021 13:05:39 GMT+0100 (Central European Standard Time)","2021","2","16","13","5","39","um12","19","female","right","72","56","19","1","15","","","","","test","fear","fear","f","true"
"null","<div style=""font-size:60px;"">+</div>","null","html-keyboard-response","35","69932","0.0-9.0-0.13","o3elcb","Tue Feb 16 2021 13:05:39 GMT+0100 (Central European Standard Time)","2021","2","16","13","5","39","um12","19","female","right","72","56","19","1","15","","","","","fixation","","","",""
"468.9350000116974","img/image_stim_f_stroop.png","70","image-keyboard-response","36","70403","0.0-9.0-1.13","o3elcb","Tue Feb 16 2021 13:05:39 GMT+0100 (Central European Standard Time)","2021","2","16","13","5","39","um12","19","female","right","72","56","19","1","15","","","","","test","fear","happy","f","true"
"null","<div style=""font-size:60px;"">+</div>","null","html-keyboard-response","37","71161","0.0-9.0-0.14","o3elcb","Tue Feb 16 2021 13:05:39 GMT+0100 (Central European Standard Time)","2021","2","16","13","5","39","um12","19","female","right","72","56","19","1","15","","","","","fixation","","","",""
"452.3150000022724","img/image_stim_h_stroop.png","72","image-keyboard-response","38","71616","0.0-9.0-1.14","o3elcb","Tue Feb 16 2021 13:05:39 GMT+0100 (Central European Standard Time)","2021","2","16","13","5","39","um12","19","female","right","72","56","19","1","15","","","","","test","happy","fear","h","true"
"null","<div style=""font-size:60px;"">+</div>","null","html-keyboard-response","39","73126","0.0-9.0-0.15","o3elcb","Tue Feb 16 2021 13:05:39 GMT+0100 (Central European Standard Time)","2021","2","16","13","5","39","um12","19","female","right","72","56","19","1","15","","","","","fixation","","","",""
"427.0600000018021","img/image_stim_h.png","72","image-keyboard-response","40","73555","0.0-9.0-1.15","o3elcb","Tue Feb 16 2021 13:05:39 GMT+0100 (Central European Standard Time)","2021","2","16","13","5","39","um12","19","female","right","72","56","19","1","15","","","","","test","happy","happy","h","true"
"null","<div style=""font-size:60px;"">+</div>","null","html-keyboard-response","41","74811","0.0-9.0-0.16","o3elcb","Tue Feb 16 2021 13:05:39 GMT+0100 (Central European Standard Time)","2021","2","16","13","5","39","um12","19","female","right","72","56","19","1","15","","","","","fixation","","","",""
"383.67500000458676","img/image_stim_h.png","72","image-keyboard-response","42","75197","0.0-9.0-1.16","o3elcb","Tue Feb 16 2021 13:05:39 GMT+0100 (Central European Standard Time)","2021","2","16","13","5","39","um12","19","female","right","72","56","19","1","15","","","","","test","happy","happy","h","true"
"null","<div style=""font-size:60px;"">+</div>","null","html-keyboard-response","43","75953","0.0-9.0-0.17","o3elcb","Tue Feb 16 2021 13:05:39 GMT+0100 (Central European Standard Time)","2021","2","16","13","5","39","um12","19","female","right","72","56","19","1","15","","","","","fixation","","","",""
"416.5800000046147","img/image_stim_h_stroop.png","72","image-keyboard-response","44","76372","0.0-9.0-1.17","o3elcb","Tue Feb 16 2021 13:05:39 GMT+0100 (Central European Standard Time)","2021","2","16","13","5","39","um12","19","female","right","72","56","19","1","15","","","","","test","happy","fear","h","true"
"null","<div style=""font-size:60px;"">+</div>","null","html-keyboard-response","45","76877","0.0-9.0-0.18","o3elcb","Tue Feb 16 2021 13:05:39 GMT+0100 (Central European Standard Time)","2021","2","16","13","5","39","um12","19","female","right","72","56","19","1","15","","","","","fixation","","","",""
"516.9650000025285","img/image_stim_f.png","70","image-keyboard-response","46","77396","0.0-9.0-1.18","o3elcb","Tue Feb 16 2021 13:05:39 GMT+0100 (Central European Standard Time)","2021","2","16","13","5","39","um12","19","female","right","72","56","19","1","15","","","","","test","fear","fear","f","true"
"null","<div style=""font-size:60px;"">+</div>","null","html-keyboard-response","47","77651","0.0-9.0-0.19","o3elcb","Tue Feb 16 2021 13:05:39 GMT+0100 (Central European Standard Time)","2021","2","16","13","5","39","um12","19","female","right","72","56","19","1","15","","","","","fixation","","","",""
"568.0050000082701","img/image_stim_f_stroop.png","70","image-keyboard-response","48","78222","0.0-9.0-1.19","o3elcb","Tue Feb 16 2021 13:05:39 GMT+0100 (Central European Standard Time)","2021","2","16","13","5","39","um12","19","female","right","72","56","19","1","15","","","","","test","fear","happy","f","true"
"null","<div style=""font-size:60px;"">+</div>","null","html-keyboard-response","49","78981","0.0-9.0-0.20","o3elcb","Tue Feb 16 2021 13:05:39 GMT+0100 (Central European Standard Time)","2021","2","16","13","5","39","um12","19","female","right","72","56","19","1","15","","","","","fixation","","","",""
"506.1849999910919","img/image_stim_h.png","72","image-keyboard-response","50","79489","0.0-9.0-1.20","o3elcb","Tue Feb 16 2021 13:05:39 GMT+0100 (Central European Standard Time)","2021","2","16","13","5","39","um12","19","female","right","72","56","19","1","15","","","","","test","happy","happy","h","true"
"null","<div style=""font-size:60px;"">+</div>","null","html-keyboard-response","51","81498","0.0-9.0-0.21","o3elcb","Tue Feb 16 2021 13:05:39 GMT+0100 (Central European Standard Time)","2021","2","16","13","5","39","um12","19","female","right","72","56","19","1","15","","","","","fixation","","","",""
"448.7150000059046","img/image_stim_h_stroop.png","72","image-keyboard-response","52","81949","0.0-9.0-1.21","o3elcb","Tue Feb 16 2021 13:05:39 GMT+0100 (Central European Standard Time)","2021","2","16","13","5","39","um12","19","female","right","72","56","19","1","15","","","","","test","happy","fear","h","true"
"null","<div style=""font-size:60px;"">+</div>","null","html-keyboard-response","53","83954","0.0-9.0-0.22","o3elcb","Tue Feb 16 2021 13:05:39 GMT+0100 (Central European Standard Time)","2021","2","16","13","5","39","um12","19","female","right","72","56","19","1","15","","","","","fixation","","","",""
"469.8249999928521","img/image_stim_f.png","70","image-keyboard-response","54","84426","0.0-9.0-1.22","o3elcb","Tue Feb 16 2021 13:05:39 GMT+0100 (Central European Standard Time)","2021","2","16","13","5","39","um12","19","female","right","72","56","19","1","15","","","","","test","fear","fear","f","true"
"null","<div style=""font-size:60px;"">+</div>","null","html-keyboard-response","55","85933","0.0-9.0-0.23","o3elcb","Tue Feb 16 2021 13:05:39 GMT+0100 (Central European Standard Time)","2021","2","16","13","5","39","um12","19","female","right","72","56","19","1","15","","","","","fixation","","","",""
"597.5449999968987","img/image_stim_f_stroop.png","70","image-keyboard-response","56","86532","0.0-9.0-1.23","o3elcb","Tue Feb 16 2021 13:05:39 GMT+0100 (Central European Standard Time)","2021","2","16","13","5","39","um12","19","female","right","72","56","19","1","15","","","","","test","fear","happy","f","true"
"null","<div style=""font-size:60px;"">+</div>","null","html-keyboard-response","57","88042","0.0-9.0-0.24","o3elcb","Tue Feb 16 2021 13:05:39 GMT+0100 (Central European Standard Time)","2021","2","16","13","5","39","um12","19","female","right","72","56","19","1","15","","","","","fixation","","","",""
"399.22500000102445","img/image_stim_f_stroop.png","70","image-keyboard-response","58","88443","0.0-9.0-1.24","o3elcb","Tue Feb 16 2021 13:05:39 GMT+0100 (Central European Standard Time)","2021","2","16","13","5","39","um12","19","female","right","72","56","19","1","15","","","","","test","fear","happy","f","true"
"null","<div style=""font-size:60px;"">+</div>","null","html-keyboard-response","59","88948","0.0-9.0-0.25","o3elcb","Tue Feb 16 2021 13:05:39 GMT+0100 (Central European Standard Time)","2021","2","16","13","5","39","um12","19","female","right","72","56","19","1","15","","","","","fixation","","","",""
"473.6949999933131","img/image_stim_h_stroop.png","72","image-keyboard-response","60","89424","0.0-9.0-1.25","o3elcb","Tue Feb 16 2021 13:05:39 GMT+0100 (Central European Standard Time)","2021","2","16","13","5","39","um12","19","female","right","72","56","19","1","15","","","","","test","happy","fear","h","true"
"null","<div style=""font-size:60px;"">+</div>","null","html-keyboard-response","61","90185","0.0-9.0-0.26","o3elcb","Tue Feb 16 2021 13:05:39 GMT+0100 (Central European Standard Time)","2021","2","16","13","5","39","um12","19","female","right","72","56","19","1","15","","","","","fixation","","","",""
"354.1700000059791","img/image_stim_f.png","72","image-keyboard-response","62","90540","0.0-9.0-1.26","o3elcb","Tue Feb 16 2021 13:05:39 GMT+0100 (Central European Standard Time)","2021","2","16","13","5","39","um12","19","female","right","72","56","19","1","15","","","","","test","fear","fear","f","false"
"null","<div style=""font-size:60px;"">+</div>","null","html-keyboard-response","63","92299","0.0-9.0-0.27","o3elcb","Tue Feb 16 2021 13:05:39 GMT+0100 (Central European Standard Time)","2021","2","16","13","5","39","um12","19","female","right","72","56","19","1","15","","","","","fixation","","","",""
"468.67000000202097","img/image_stim_h.png","72","image-keyboard-response","64","92769","0.0-9.0-1.27","o3elcb","Tue Feb 16 2021 13:05:39 GMT+0100 (Central European Standard Time)","2021","2","16","13","5","39","um12","19","female","right","72","56","19","1","15","","","","","test","happy","happy","h","true"
"null","<div style=""font-size:60px;"">+</div>","null","html-keyboard-response","65","94790","0.0-9.0-0.28","o3elcb","Tue Feb 16 2021 13:05:39 GMT+0100 (Central European Standard Time)","2021","2","16","13","5","39","um12","19","female","right","72","56","19","1","15","","","","","fixation","","","",""
"580.790000007255","img/image_stim_h.png","72","image-keyboard-response","66","95373","0.0-9.0-1.28","o3elcb","Tue Feb 16 2021 13:05:39 GMT+0100 (Central European Standard Time)","2021","2","16","13","5","39","um12","19","female","right","72","56","19","1","15","","","","","test","happy","happy","h","true"
"null","<div style=""font-size:60px;"">+</div>","null","html-keyboard-response","67","97131","0.0-9.0-0.29","o3elcb","Tue Feb 16 2021 13:05:39 GMT+0100 (Central European Standard Time)","2021","2","16","13","5","39","um12","19","female","right","72","56","19","1","15","","","","","fixation","","","",""
"473.375000001397","img/image_stim_h_stroop.png","72","image-keyboard-response","68","97607","0.0-9.0-1.29","o3elcb","Tue Feb 16 2021 13:05:39 GMT+0100 (Central European Standard Time)","2021","2","16","13","5","39","um12","19","female","right","72","56","19","1","15","","","","","test","happy","fear","h","true"
"null","<div style=""font-size:60px;"">+</div>","null","html-keyboard-response","69","97867","0.0-9.0-0.30","o3elcb","Tue Feb 16 2021 13:05:39 GMT+0100 (Central European Standard Time)","2021","2","16","13","5","39","um12","19","female","right","72","56","19","1","15","","","","","fixation","","","",""
"568.5349999985192","img/image_stim_f.png","70","image-keyboard-response","70","98437","0.0-9.0-1.30","o3elcb","Tue Feb 16 2021 13:05:39 GMT+0100 (Central European Standard Time)","2021","2","16","13","5","39","um12","19","female","right","72","56","19","1","15","","","","","test","fear","fear","f","true"
"null","<div style=""font-size:60px;"">+</div>","null","html-keyboard-response","71","99197","0.0-9.0-0.31","o3elcb","Tue Feb 16 2021 13:05:39 GMT+0100 (Central European Standard Time)","2021","2","16","13","5","39","um12","19","female","right","72","56","19","1","15","","","","","fixation","","","",""
"489.58500000298955","img/image_stim_f_stroop.png","70","image-keyboard-response","72","99689","0.0-9.0-1.31","o3elcb","Tue Feb 16 2021 13:05:39 GMT+0100 (Central European Standard Time)","2021","2","16","13","5","39","um12","19","female","right","72","56","19","1","15","","","","","test","fear","happy","f","true"
"null","<div style=""font-size:60px;"">+</div>","null","html-keyboard-response","73","101199","0.0-9.0-0.32","o3elcb","Tue Feb 16 2021 13:05:39 GMT+0100 (Central European Standard Time)","2021","2","16","13","5","39","um12","19","female","right","72","56","19","1","15","","","","","fixation","","","",""
"458.5649999935413","img/image_stim_f_stroop.png","70","image-keyboard-response","74","101659","0.0-9.0-1.32","o3elcb","Tue Feb 16 2021 13:05:39 GMT+0100 (Central European Standard Time)","2021","2","16","13","5","39","um12","19","female","right","72","56","19","1","15","","","","","test","fear","happy","f","true"
"null","<div style=""font-size:60px;"">+</div>","null","html-keyboard-response","75","102417","0.0-9.0-0.33","o3elcb","Tue Feb 16 2021 13:05:39 GMT+0100 (Central European Standard Time)","2021","2","16","13","5","39","um12","19","female","right","72","56","19","1","15","","","","","fixation","","","",""
"373.93500001053326","img/image_stim_f.png","70","image-keyboard-response","76","102793","0.0-9.0-1.33","o3elcb","Tue Feb 16 2021 13:05:39 GMT+0100 (Central European Standard Time)","2021","2","16","13","5","39","um12","19","female","right","72","56","19","1","15","","","","","test","fear","fear","f","true"
"null","<div style=""font-size:60px;"">+</div>","null","html-keyboard-response","77","103548","0.0-9.0-0.34","o3elcb","Tue Feb 16 2021 13:05:39 GMT+0100 (Central European Standard Time)","2021","2","16","13","5","39","um12","19","female","right","72","56","19","1","15","","","","","fixation","","","",""
"451.1299999867333","img/image_stim_h.png","72","image-keyboard-response","78","104001","0.0-9.0-1.34","o3elcb","Tue Feb 16 2021 13:05:39 GMT+0100 (Central European Standard Time)","2021","2","16","13","5","39","um12","19","female","right","72","56","19","1","15","","","","","test","happy","happy","h","true"
"null","<div style=""font-size:60px;"">+</div>","null","html-keyboard-response","79","105011","0.0-9.0-0.35","o3elcb","Tue Feb 16 2021 13:05:39 GMT+0100 (Central European Standard Time)","2021","2","16","13","5","39","um12","19","female","right","72","56","19","1","15","","","","","fixation","","","",""
"466.55500000633765","img/image_stim_h_stroop.png","72","image-keyboard-response","80","105480","0.0-9.0-1.35","o3elcb","Tue Feb 16 2021 13:05:39 GMT+0100 (Central European Standard Time)","2021","2","16","13","5","39","um12","19","female","right","72","56","19","1","15","","","","","test","happy","fear","h","true"
