"rt","stimulus","key_press","trial_type","trial_index","time_elapsed","internal_node_id","exp_id","Time","year","month","date","hour","minute","seconds","id","age","Gender","Handedness","mood","fresh","hunger","H_since_Sleep","H_since_Eat","responses","question_order","slider_start","response","test_part","face","word","correct_response","correct"
"3746","<p>Welcome to this experiment on daily rhythms and cognition.</p><p>First you will be asked some questions about yourself.</p><p>Then a short experiment will measure your response time.</p><p>Take the test at different times of the day/night.</p><p>The test is anonymous, but comparing your data across time is important.</p><p>Therefore, please make up and remember a personal ID (two letters+ two numbers).</p><p>Use this ID whenever taking the test.</p><p><strong>Press any key to begin.</strong></p>","32","html-keyboard-response","0","3746","0.0-0.0","ujkb78","Thu Feb 11 2021 09:05:02 GMT+0100 (CET)","2021","2","11","9","5","2","BB16","20","female","right","56","43","36","0","13","","","","","","","","",""
"3429","","","survey-text","1","7190","0.0-1.0","ujkb78","Thu Feb 11 2021 09:05:02 GMT+0100 (CET)","2021","2","11","9","5","2","BB16","20","female","right","56","43","36","0","13","{""Q0"":""BB16""}","","","","","","","",""
"2985.000000000002","","","survey-text","2","10183","0.0-2.0","ujkb78","Thu Feb 11 2021 09:05:02 GMT+0100 (CET)","2021","2","11","9","5","2","BB16","20","female","right","56","43","36","0","13","{""Q0"":""20""}","","","","","","","",""
"4779","","","survey-multi-select","3","14964","0.0-3.0","ujkb78","Thu Feb 11 2021 09:05:02 GMT+0100 (CET)","2021","2","11","9","5","2","BB16","20","female","right","56","43","36","0","13","{""Gender"":[""female""],""Hand"":[""right""]}","[0,1]","","","","","","",""
"8768.000000000002","<p>How Sad/Angry or Happy are you right now?</p>","","html-slider-response","4","23733","0.0-4.0","ujkb78","Thu Feb 11 2021 09:05:02 GMT+0100 (CET)","2021","2","11","9","5","2","BB16","20","female","right","56","43","36","0","13","","","50","56","","","","",""
"12040","<p>How Tired/Sleepy/Distracted or Fresh/Awake/Alert are you right now?</p>","","html-slider-response","5","35772","0.0-5.0","ujkb78","Thu Feb 11 2021 09:05:02 GMT+0100 (CET)","2021","2","11","9","5","2","BB16","20","female","right","56","43","36","0","13","","","50","43","","","","",""
"8037","<p>How Hungry or Satiated are you right now?</p>","","html-slider-response","6","43810","0.0-6.0","ujkb78","Thu Feb 11 2021 09:05:02 GMT+0100 (CET)","2021","2","11","9","5","2","BB16","20","female","right","56","43","36","0","13","","","50","36","","","","",""
"26031","","","survey-multi-select","7","69851","0.0-7.0","ujkb78","Thu Feb 11 2021 09:05:02 GMT+0100 (CET)","2021","2","11","9","5","2","BB16","20","female","right","56","43","36","0","13","{""Sleep"":[""0""],""Eat"":[""13""]}","[0,1]","","","","","","",""
"11551","<p>In this experiment, a face and a word will appear in the center of the screen.</p><p>If the face is <strong>happy</strong>, press the letter <strong>H</strong> with <strong>right</strong> index finger.</p><p>If the face is <strong>fearful</strong>, press the letter <strong>F</strong> with <strong>left</strong> index finger.</p><p><strong>Ignore the written words</strong>. Respond as fast as possible while being correct. </p><div style='width: 900px;'><div style='float: left;'><img src='img/stimuli_stroop_happy.png'></img><p class='small'><strong>Press the H key for happy faces</strong></p></div><div class='float: right;'><img src='img/stimuli_stroop_fear.png'></img><p class='small'><strong>Press the F key for faces with fear</strong></p></div></div><p>If the screen turns blank, press <strong>SPACE</strong></p><p><strong>Press any key to begin.</strong></p>","32","html-keyboard-response","8","81404","0.0-8.0","ujkb78","Thu Feb 11 2021 09:05:02 GMT+0100 (CET)","2021","2","11","9","5","2","BB16","20","female","right","56","43","36","0","13","","","","","","","","",""
"null","<div style=""font-size:60px;"">+</div>","null","html-keyboard-response","9","84658","0.0-9.0-0.0","ujkb78","Thu Feb 11 2021 09:05:02 GMT+0100 (CET)","2021","2","11","9","5","2","BB16","20","female","right","56","43","36","0","13","","","","","fixation","","","",""
"687.0000000000146","img/image_stim_h_stroop.png","70","image-keyboard-response","10","85349","0.0-9.0-1.0","ujkb78","Thu Feb 11 2021 09:05:02 GMT+0100 (CET)","2021","2","11","9","5","2","BB16","20","female","right","56","43","36","0","13","","","","","test","happy","fear","h","false"
"null","<div style=""font-size:60px;"">+</div>","null","html-keyboard-response","11","87354","0.0-9.0-0.1","ujkb78","Thu Feb 11 2021 09:05:02 GMT+0100 (CET)","2021","2","11","9","5","2","BB16","20","female","right","56","43","36","0","13","","","","","fixation","","","",""
"647","img/image_stim_f.png","70","image-keyboard-response","12","88004","0.0-9.0-1.1","ujkb78","Thu Feb 11 2021 09:05:02 GMT+0100 (CET)","2021","2","11","9","5","2","BB16","20","female","right","56","43","36","0","13","","","","","test","fear","fear","f","true"
"null","<div style=""font-size:60px;"">+</div>","null","html-keyboard-response","13","89259","0.0-9.0-0.2","ujkb78","Thu Feb 11 2021 09:05:02 GMT+0100 (CET)","2021","2","11","9","5","2","BB16","20","female","right","56","43","36","0","13","","","","","fixation","","","",""
"615","img/image_stim_h.png","72","image-keyboard-response","14","89876","0.0-9.0-1.2","ujkb78","Thu Feb 11 2021 09:05:02 GMT+0100 (CET)","2021","2","11","9","5","2","BB16","20","female","right","56","43","36","0","13","","","","","test","happy","happy","h","true"
"null","<div style=""font-size:60px;"">+</div>","null","html-keyboard-response","15","91134","0.0-9.0-0.3","ujkb78","Thu Feb 11 2021 09:05:02 GMT+0100 (CET)","2021","2","11","9","5","2","BB16","20","female","right","56","43","36","0","13","","","","","fixation","","","",""
"503","img/image_stim_f_stroop.png","70","image-keyboard-response","16","91641","0.0-9.0-1.3","ujkb78","Thu Feb 11 2021 09:05:02 GMT+0100 (CET)","2021","2","11","9","5","2","BB16","20","female","right","56","43","36","0","13","","","","","test","fear","happy","f","true"
"null","<div style=""font-size:60px;"">+</div>","null","html-keyboard-response","17","92145","0.0-9.0-0.4","ujkb78","Thu Feb 11 2021 09:05:02 GMT+0100 (CET)","2021","2","11","9","5","2","BB16","20","female","right","56","43","36","0","13","","","","","fixation","","","",""
"533","img/image_stim_h.png","72","image-keyboard-response","18","92681","0.0-9.0-1.4","ujkb78","Thu Feb 11 2021 09:05:02 GMT+0100 (CET)","2021","2","11","9","5","2","BB16","20","female","right","56","43","36","0","13","","","","","test","happy","happy","h","true"
"null","<div style=""font-size:60px;"">+</div>","null","html-keyboard-response","19","93184","0.0-9.0-0.5","ujkb78","Thu Feb 11 2021 09:05:02 GMT+0100 (CET)","2021","2","11","9","5","2","BB16","20","female","right","56","43","36","0","13","","","","","fixation","","","",""
"428","img/image_stim_h_stroop.png","72","image-keyboard-response","20","93615","0.0-9.0-1.5","ujkb78","Thu Feb 11 2021 09:05:02 GMT+0100 (CET)","2021","2","11","9","5","2","BB16","20","female","right","56","43","36","0","13","","","","","test","happy","fear","h","true"
"null","<div style=""font-size:60px;"">+</div>","null","html-keyboard-response","21","95620","0.0-9.0-0.6","ujkb78","Thu Feb 11 2021 09:05:02 GMT+0100 (CET)","2021","2","11","9","5","2","BB16","20","female","right","56","43","36","0","13","","","","","fixation","","","",""
"513","img/image_stim_f_stroop.png","70","image-keyboard-response","22","96136","0.0-9.0-1.6","ujkb78","Thu Feb 11 2021 09:05:02 GMT+0100 (CET)","2021","2","11","9","5","2","BB16","20","female","right","56","43","36","0","13","","","","","test","fear","happy","f","true"
"null","<div style=""font-size:60px;"">+</div>","null","html-keyboard-response","23","97141","0.0-9.0-0.7","ujkb78","Thu Feb 11 2021 09:05:02 GMT+0100 (CET)","2021","2","11","9","5","2","BB16","20","female","right","56","43","36","0","13","","","","","fixation","","","",""
"550.0000000000146","img/image_stim_f.png","70","image-keyboard-response","24","97694","0.0-9.0-1.7","ujkb78","Thu Feb 11 2021 09:05:02 GMT+0100 (CET)","2021","2","11","9","5","2","BB16","20","female","right","56","43","36","0","13","","","","","test","fear","fear","f","true"
"null","<div style=""font-size:60px;"">+</div>","null","html-keyboard-response","25","99698","0.0-9.0-0.8","ujkb78","Thu Feb 11 2021 09:05:02 GMT+0100 (CET)","2021","2","11","9","5","2","BB16","20","female","right","56","43","36","0","13","","","","","fixation","","","",""
"481.99999999998545","img/image_stim_h_stroop.png","72","image-keyboard-response","26","100188","0.0-9.0-1.8","ujkb78","Thu Feb 11 2021 09:05:02 GMT+0100 (CET)","2021","2","11","9","5","2","BB16","20","female","right","56","43","36","0","13","","","","","test","happy","fear","h","true"
"null","<div style=""font-size:60px;"">+</div>","null","html-keyboard-response","27","101692","0.0-9.0-0.9","ujkb78","Thu Feb 11 2021 09:05:02 GMT+0100 (CET)","2021","2","11","9","5","2","BB16","20","female","right","56","43","36","0","13","","","","","fixation","","","",""
"467","img/image_stim_f_stroop.png","70","image-keyboard-response","28","102162","0.0-9.0-1.9","ujkb78","Thu Feb 11 2021 09:05:02 GMT+0100 (CET)","2021","2","11","9","5","2","BB16","20","female","right","56","43","36","0","13","","","","","test","fear","happy","f","true"
"null","<div style=""font-size:60px;"">+</div>","null","html-keyboard-response","29","102417","0.0-9.0-0.10","ujkb78","Thu Feb 11 2021 09:05:02 GMT+0100 (CET)","2021","2","11","9","5","2","BB16","20","female","right","56","43","36","0","13","","","","","fixation","","","",""
"439","img/image_stim_f.png","70","image-keyboard-response","30","102859","0.0-9.0-1.10","ujkb78","Thu Feb 11 2021 09:05:02 GMT+0100 (CET)","2021","2","11","9","5","2","BB16","20","female","right","56","43","36","0","13","","","","","test","fear","fear","f","true"
"null","<div style=""font-size:60px;"">+</div>","null","html-keyboard-response","31","103364","0.0-9.0-0.11","ujkb78","Thu Feb 11 2021 09:05:02 GMT+0100 (CET)","2021","2","11","9","5","2","BB16","20","female","right","56","43","36","0","13","","","","","fixation","","","",""
"456","img/image_stim_h.png","72","image-keyboard-response","32","103823","0.0-9.0-1.11","ujkb78","Thu Feb 11 2021 09:05:02 GMT+0100 (CET)","2021","2","11","9","5","2","BB16","20","female","right","56","43","36","0","13","","","","","test","happy","happy","h","true"
"null","<div style=""font-size:60px;"">+</div>","null","html-keyboard-response","33","104828","0.0-9.0-0.12","ujkb78","Thu Feb 11 2021 09:05:02 GMT+0100 (CET)","2021","2","11","9","5","2","BB16","20","female","right","56","43","36","0","13","","","","","fixation","","","",""
"536.9999999999854","img/image_stim_h.png","72","image-keyboard-response","34","105368","0.0-9.0-1.12","ujkb78","Thu Feb 11 2021 09:05:02 GMT+0100 (CET)","2021","2","11","9","5","2","BB16","20","female","right","56","43","36","0","13","","","","","test","happy","happy","h","true"
"null","<div style=""font-size:60px;"">+</div>","null","html-keyboard-response","35","106623","0.0-9.0-0.13","ujkb78","Thu Feb 11 2021 09:05:02 GMT+0100 (CET)","2021","2","11","9","5","2","BB16","20","female","right","56","43","36","0","13","","","","","fixation","","","",""
"571","img/image_stim_h_stroop.png","72","image-keyboard-response","36","107202","0.0-9.0-1.13","ujkb78","Thu Feb 11 2021 09:05:02 GMT+0100 (CET)","2021","2","11","9","5","2","BB16","20","female","right","56","43","36","0","13","","","","","test","happy","fear","h","true"
"null","<div style=""font-size:60px;"">+</div>","null","html-keyboard-response","37","108957","0.0-9.0-0.14","ujkb78","Thu Feb 11 2021 09:05:02 GMT+0100 (CET)","2021","2","11","9","5","2","BB16","20","female","right","56","43","36","0","13","","","","","fixation","","","",""
"505.00000000001455","img/image_stim_f.png","70","image-keyboard-response","38","109465","0.0-9.0-1.14","ujkb78","Thu Feb 11 2021 09:05:02 GMT+0100 (CET)","2021","2","11","9","5","2","BB16","20","female","right","56","43","36","0","13","","","","","test","fear","fear","f","true"
"null","<div style=""font-size:60px;"">+</div>","null","html-keyboard-response","39","110220","0.0-9.0-0.15","ujkb78","Thu Feb 11 2021 09:05:02 GMT+0100 (CET)","2021","2","11","9","5","2","BB16","20","female","right","56","43","36","0","13","","","","","fixation","","","",""
"397","img/image_stim_f_stroop.png","70","image-keyboard-response","40","110620","0.0-9.0-1.15","ujkb78","Thu Feb 11 2021 09:05:02 GMT+0100 (CET)","2021","2","11","9","5","2","BB16","20","female","right","56","43","36","0","13","","","","","test","fear","happy","f","true"
"null","<div style=""font-size:60px;"">+</div>","null","html-keyboard-response","41","111875","0.0-9.0-0.16","ujkb78","Thu Feb 11 2021 09:05:02 GMT+0100 (CET)","2021","2","11","9","5","2","BB16","20","female","right","56","43","36","0","13","","","","","fixation","","","",""
"511","img/image_stim_f.png","70","image-keyboard-response","42","112389","0.0-9.0-1.16","ujkb78","Thu Feb 11 2021 09:05:02 GMT+0100 (CET)","2021","2","11","9","5","2","BB16","20","female","right","56","43","36","0","13","","","","","test","fear","fear","f","true"
"null","<div style=""font-size:60px;"">+</div>","null","html-keyboard-response","43","113894","0.0-9.0-0.17","ujkb78","Thu Feb 11 2021 09:05:02 GMT+0100 (CET)","2021","2","11","9","5","2","BB16","20","female","right","56","43","36","0","13","","","","","fixation","","","",""
"459","img/image_stim_h.png","72","image-keyboard-response","44","114357","0.0-9.0-1.17","ujkb78","Thu Feb 11 2021 09:05:02 GMT+0100 (CET)","2021","2","11","9","5","2","BB16","20","female","right","56","43","36","0","13","","","","","test","happy","happy","h","true"
"null","<div style=""font-size:60px;"">+</div>","null","html-keyboard-response","45","116112","0.0-9.0-0.18","ujkb78","Thu Feb 11 2021 09:05:02 GMT+0100 (CET)","2021","2","11","9","5","2","BB16","20","female","right","56","43","36","0","13","","","","","fixation","","","",""
"547","img/image_stim_f_stroop.png","70","image-keyboard-response","46","116662","0.0-9.0-1.18","ujkb78","Thu Feb 11 2021 09:05:02 GMT+0100 (CET)","2021","2","11","9","5","2","BB16","20","female","right","56","43","36","0","13","","","","","test","fear","happy","f","true"
"null","<div style=""font-size:60px;"">+</div>","null","html-keyboard-response","47","117672","0.0-9.0-0.19","ujkb78","Thu Feb 11 2021 09:05:02 GMT+0100 (CET)","2021","2","11","9","5","2","BB16","20","female","right","56","43","36","0","13","","","","","fixation","","","",""
"882","img/image_stim_h_stroop.png","72","image-keyboard-response","48","118557","0.0-9.0-1.19","ujkb78","Thu Feb 11 2021 09:05:02 GMT+0100 (CET)","2021","2","11","9","5","2","BB16","20","female","right","56","43","36","0","13","","","","","test","happy","fear","h","true"
"null","<div style=""font-size:60px;"">+</div>","null","html-keyboard-response","49","118813","0.0-9.0-0.20","ujkb78","Thu Feb 11 2021 09:05:02 GMT+0100 (CET)","2021","2","11","9","5","2","BB16","20","female","right","56","43","36","0","13","","","","","fixation","","","",""
"476.99999999998545","img/image_stim_h.png","72","image-keyboard-response","50","119293","0.0-9.0-1.20","ujkb78","Thu Feb 11 2021 09:05:02 GMT+0100 (CET)","2021","2","11","9","5","2","BB16","20","female","right","56","43","36","0","13","","","","","test","happy","happy","h","true"
"null","<div style=""font-size:60px;"">+</div>","null","html-keyboard-response","51","119547","0.0-9.0-0.21","ujkb78","Thu Feb 11 2021 09:05:02 GMT+0100 (CET)","2021","2","11","9","5","2","BB16","20","female","right","56","43","36","0","13","","","","","fixation","","","",""
"453","img/image_stim_h_stroop.png","72","image-keyboard-response","52","120003","0.0-9.0-1.21","ujkb78","Thu Feb 11 2021 09:05:02 GMT+0100 (CET)","2021","2","11","9","5","2","BB16","20","female","right","56","43","36","0","13","","","","","test","happy","fear","h","true"
"null","<div style=""font-size:60px;"">+</div>","null","html-keyboard-response","53","121008","0.0-9.0-0.22","ujkb78","Thu Feb 11 2021 09:05:02 GMT+0100 (CET)","2021","2","11","9","5","2","BB16","20","female","right","56","43","36","0","13","","","","","fixation","","","",""
"514","img/image_stim_f.png","70","image-keyboard-response","54","121525","0.0-9.0-1.22","ujkb78","Thu Feb 11 2021 09:05:02 GMT+0100 (CET)","2021","2","11","9","5","2","BB16","20","female","right","56","43","36","0","13","","","","","test","fear","fear","f","true"
"null","<div style=""font-size:60px;"">+</div>","null","html-keyboard-response","55","122530","0.0-9.0-0.23","ujkb78","Thu Feb 11 2021 09:05:02 GMT+0100 (CET)","2021","2","11","9","5","2","BB16","20","female","right","56","43","36","0","13","","","","","fixation","","","",""
"632","img/image_stim_f_stroop.png","70","image-keyboard-response","56","123170","0.0-9.0-1.23","ujkb78","Thu Feb 11 2021 09:05:02 GMT+0100 (CET)","2021","2","11","9","5","2","BB16","20","female","right","56","43","36","0","13","","","","","test","fear","happy","f","true"
"null","<div style=""font-size:60px;"">+</div>","null","html-keyboard-response","57","124676","0.0-9.0-0.24","ujkb78","Thu Feb 11 2021 09:05:02 GMT+0100 (CET)","2021","2","11","9","5","2","BB16","20","female","right","56","43","36","0","13","","","","","fixation","","","",""
"458","img/image_stim_h_stroop.png","72","image-keyboard-response","58","125137","0.0-9.0-1.24","ujkb78","Thu Feb 11 2021 09:05:02 GMT+0100 (CET)","2021","2","11","9","5","2","BB16","20","female","right","56","43","36","0","13","","","","","test","happy","fear","h","true"
"null","<div style=""font-size:60px;"">+</div>","null","html-keyboard-response","59","126642","0.0-9.0-0.25","ujkb78","Thu Feb 11 2021 09:05:02 GMT+0100 (CET)","2021","2","11","9","5","2","BB16","20","female","right","56","43","36","0","13","","","","","fixation","","","",""
"536","img/image_stim_f.png","70","image-keyboard-response","60","127181","0.0-9.0-1.25","ujkb78","Thu Feb 11 2021 09:05:02 GMT+0100 (CET)","2021","2","11","9","5","2","BB16","20","female","right","56","43","36","0","13","","","","","test","fear","fear","f","true"
"null","<div style=""font-size:60px;"">+</div>","null","html-keyboard-response","61","128936","0.0-9.0-0.26","ujkb78","Thu Feb 11 2021 09:05:02 GMT+0100 (CET)","2021","2","11","9","5","2","BB16","20","female","right","56","43","36","0","13","","","","","fixation","","","",""
"461.99999999998545","img/image_stim_f_stroop.png","72","image-keyboard-response","62","129400","0.0-9.0-1.26","ujkb78","Thu Feb 11 2021 09:05:02 GMT+0100 (CET)","2021","2","11","9","5","2","BB16","20","female","right","56","43","36","0","13","","","","","test","fear","happy","f","false"
"null","<div style=""font-size:60px;"">+</div>","null","html-keyboard-response","63","131155","0.0-9.0-0.27","ujkb78","Thu Feb 11 2021 09:05:02 GMT+0100 (CET)","2021","2","11","9","5","2","BB16","20","female","right","56","43","36","0","13","","","","","fixation","","","",""
"526.0000000000291","img/image_stim_h.png","72","image-keyboard-response","64","131684","0.0-9.0-1.27","ujkb78","Thu Feb 11 2021 09:05:02 GMT+0100 (CET)","2021","2","11","9","5","2","BB16","20","female","right","56","43","36","0","13","","","","","test","happy","happy","h","true"
"null","<div style=""font-size:60px;"">+</div>","null","html-keyboard-response","65","133688","0.0-9.0-0.28","ujkb78","Thu Feb 11 2021 09:05:02 GMT+0100 (CET)","2021","2","11","9","5","2","BB16","20","female","right","56","43","36","0","13","","","","","fixation","","","",""
"428","img/image_stim_h.png","72","image-keyboard-response","66","134126","0.0-9.0-1.28","ujkb78","Thu Feb 11 2021 09:05:02 GMT+0100 (CET)","2021","2","11","9","5","2","BB16","20","female","right","56","43","36","0","13","","","","","test","happy","happy","h","true"
"null","<div style=""font-size:60px;"">+</div>","null","html-keyboard-response","67","134633","0.0-9.0-0.29","ujkb78","Thu Feb 11 2021 09:05:02 GMT+0100 (CET)","2021","2","11","9","5","2","BB16","20","female","right","56","43","36","0","13","","","","","fixation","","","",""
"449.9999999999709","img/image_stim_h_stroop.png","72","image-keyboard-response","68","135086","0.0-9.0-1.29","ujkb78","Thu Feb 11 2021 09:05:02 GMT+0100 (CET)","2021","2","11","9","5","2","BB16","20","female","right","56","43","36","0","13","","","","","test","happy","fear","h","true"
"null","<div style=""font-size:60px;"">+</div>","null","html-keyboard-response","69","135841","0.0-9.0-0.30","ujkb78","Thu Feb 11 2021 09:05:02 GMT+0100 (CET)","2021","2","11","9","5","2","BB16","20","female","right","56","43","36","0","13","","","","","fixation","","","",""
"552","img/image_stim_f_stroop.png","70","image-keyboard-response","70","136397","0.0-9.0-1.30","ujkb78","Thu Feb 11 2021 09:05:02 GMT+0100 (CET)","2021","2","11","9","5","2","BB16","20","female","right","56","43","36","0","13","","","","","test","fear","happy","f","true"
"null","<div style=""font-size:60px;"">+</div>","null","html-keyboard-response","71","136652","0.0-9.0-0.31","ujkb78","Thu Feb 11 2021 09:05:02 GMT+0100 (CET)","2021","2","11","9","5","2","BB16","20","female","right","56","43","36","0","13","","","","","fixation","","","",""
"512","img/image_stim_f.png","70","image-keyboard-response","72","137168","0.0-9.0-1.31","ujkb78","Thu Feb 11 2021 09:05:02 GMT+0100 (CET)","2021","2","11","9","5","2","BB16","20","female","right","56","43","36","0","13","","","","","test","fear","fear","f","true"
"null","<div style=""font-size:60px;"">+</div>","null","html-keyboard-response","73","139173","0.0-9.0-0.32","ujkb78","Thu Feb 11 2021 09:05:02 GMT+0100 (CET)","2021","2","11","9","5","2","BB16","20","female","right","56","43","36","0","13","","","","","fixation","","","",""
"471.0000000000291","img/image_stim_h_stroop.png","72","image-keyboard-response","74","139648","0.0-9.0-1.32","ujkb78","Thu Feb 11 2021 09:05:02 GMT+0100 (CET)","2021","2","11","9","5","2","BB16","20","female","right","56","43","36","0","13","","","","","test","happy","fear","h","true"
"null","<div style=""font-size:60px;"">+</div>","null","html-keyboard-response","75","139904","0.0-9.0-0.33","ujkb78","Thu Feb 11 2021 09:05:02 GMT+0100 (CET)","2021","2","11","9","5","2","BB16","20","female","right","56","43","36","0","13","","","","","fixation","","","",""
"571","img/image_stim_f.png","70","image-keyboard-response","76","140478","0.0-9.0-1.33","ujkb78","Thu Feb 11 2021 09:05:02 GMT+0100 (CET)","2021","2","11","9","5","2","BB16","20","female","right","56","43","36","0","13","","","","","test","fear","fear","f","true"
"null","<div style=""font-size:60px;"">+</div>","null","html-keyboard-response","77","142484","0.0-9.0-0.34","ujkb78","Thu Feb 11 2021 09:05:02 GMT+0100 (CET)","2021","2","11","9","5","2","BB16","20","female","right","56","43","36","0","13","","","","","fixation","","","",""
"795","img/image_stim_f_stroop.png","70","image-keyboard-response","78","143283","0.0-9.0-1.34","ujkb78","Thu Feb 11 2021 09:05:02 GMT+0100 (CET)","2021","2","11","9","5","2","BB16","20","female","right","56","43","36","0","13","","","","","test","fear","happy","f","true"
"null","<div style=""font-size:60px;"">+</div>","null","html-keyboard-response","79","145288","0.0-9.0-0.35","ujkb78","Thu Feb 11 2021 09:05:02 GMT+0100 (CET)","2021","2","11","9","5","2","BB16","20","female","right","56","43","36","0","13","","","","","fixation","","","",""
"482","img/image_stim_h.png","72","image-keyboard-response","80","145774","0.0-9.0-1.35","ujkb78","Thu Feb 11 2021 09:05:02 GMT+0100 (CET)","2021","2","11","9","5","2","BB16","20","female","right","56","43","36","0","13","","","","","test","happy","happy","h","true"
