"rt","stimulus","key_press","trial_type","trial_index","time_elapsed","internal_node_id","exp_id","Time","year","month","date","hour","minute","seconds","id","age","Gender","Handedness","mood","fresh","hunger","H_since_Sleep","H_since_Eat","responses","question_order","slider_start","response","test_part","face","word","correct_response","correct"
"1933","<p>Welcome to this experiment on daily rhythms and cognition.</p><p>First you will be asked some questions about yourself.</p><p>Then a short experiment will measure your response time.</p><p>Take the test at different times of the day/night.</p><p>The test is anonymous, but comparing your data across time is important.</p><p>Therefore, please make up and remember a personal ID (two letters+ two numbers).</p><p>Use this ID whenever taking the test.</p><p><strong>Press any key to begin.</strong></p>","32","html-keyboard-response","0","1934","0.0-0.0","03t4j2","Sat Feb 05 2022 00:42:37 GMT+0100 (Central European Standard Time)","2022","2","5","0","42","37","ga02","19","female","left","85","36","28","16","4","","","","","","","","",""
"3649.399999976158","","","survey-text","1","5587","0.0-1.0","03t4j2","Sat Feb 05 2022 00:42:37 GMT+0100 (Central European Standard Time)","2022","2","5","0","42","37","ga02","19","female","left","85","36","28","16","4","{""Q0"":""ga02""}","","","","","","","",""
"3733.1999999284744","","","survey-text","2","9322","0.0-2.0","03t4j2","Sat Feb 05 2022 00:42:37 GMT+0100 (Central European Standard Time)","2022","2","5","0","42","37","ga02","19","female","left","85","36","28","16","4","{""Q0"":""19""}","","","","","","","",""
"4493.299999952316","","","survey-multi-select","3","13817","0.0-3.0","03t4j2","Sat Feb 05 2022 00:42:37 GMT+0100 (Central European Standard Time)","2022","2","5","0","42","37","ga02","19","female","left","85","36","28","16","4","{""Gender"":[""female""],""Hand"":[""left""]}","[0,1]","","","","","","",""
"20592.099999904633","<p>How Sad/Angry or Happy are you right now?</p>","","html-slider-response","4","34412","0.0-4.0","03t4j2","Sat Feb 05 2022 00:42:37 GMT+0100 (Central European Standard Time)","2022","2","5","0","42","37","ga02","19","female","left","85","36","28","16","4","","","50","85","","","","",""
"4641.5","<p>How Tired/Sleepy/Distracted or Fresh/Awake/Alert are you right now?</p>","","html-slider-response","5","39062","0.0-5.0","03t4j2","Sat Feb 05 2022 00:42:37 GMT+0100 (Central European Standard Time)","2022","2","5","0","42","37","ga02","19","female","left","85","36","28","16","4","","","50","36","","","","",""
"4901.299999952316","<p>How Hungry or Satiated are you right now?</p>","","html-slider-response","6","43964","0.0-6.0","03t4j2","Sat Feb 05 2022 00:42:37 GMT+0100 (Central European Standard Time)","2022","2","5","0","42","37","ga02","19","female","left","85","36","28","16","4","","","50","28","","","","",""
"29444.600000023842","","","survey-multi-select","7","73424","0.0-7.0","03t4j2","Sat Feb 05 2022 00:42:37 GMT+0100 (Central European Standard Time)","2022","2","5","0","42","37","ga02","19","female","left","85","36","28","16","4","{""Sleep"":[""16""],""Eat"":[""4""]}","[0,1]","","","","","","",""
"15388.5","<p>In this experiment, a face and a word will appear in the center of the screen.</p><p>If the face is <strong>happy</strong>, press the letter <strong>H</strong> with <strong>right</strong> index finger.</p><p>If the face is <strong>fearful</strong>, press the letter <strong>F</strong> with <strong>left</strong> index finger.</p><p><strong>Ignore the written words</strong>. Respond as fast as possible while being correct. </p><div style='width: 900px;'><div style='float: left;'><img src='img/stimuli_stroop_happy.png'></img><p class='small'><strong>Press the H key for happy faces</strong></p></div><div class='float: right;'><img src='img/stimuli_stroop_fear.png'></img><p class='small'><strong>Press the F key for faces with fear</strong></p></div></div><p>If the screen turns blank, press <strong>SPACE</strong></p><p><strong>Press any key to begin.</strong></p>","32","html-keyboard-response","8","88816","0.0-8.0","03t4j2","Sat Feb 05 2022 00:42:37 GMT+0100 (Central European Standard Time)","2022","2","5","0","42","37","ga02","19","female","left","85","36","28","16","4","","","","","","","","",""
"null","<div style=""font-size:60px;"">+</div>","null","html-keyboard-response","9","91341","0.0-9.0-0.0","03t4j2","Sat Feb 05 2022 00:42:37 GMT+0100 (Central European Standard Time)","2022","2","5","0","42","37","ga02","19","female","left","85","36","28","16","4","","","","","fixation","","","",""
"755.8999999761581","img/image_stim_f_stroop.png","70","image-keyboard-response","10","92109","0.0-9.0-1.0","03t4j2","Sat Feb 05 2022 00:42:37 GMT+0100 (Central European Standard Time)","2022","2","5","0","42","37","ga02","19","female","left","85","36","28","16","4","","","","","test","fear","happy","f","true"
"null","<div style=""font-size:60px;"">+</div>","null","html-keyboard-response","11","93122","0.0-9.0-0.1","03t4j2","Sat Feb 05 2022 00:42:37 GMT+0100 (Central European Standard Time)","2022","2","5","0","42","37","ga02","19","female","left","85","36","28","16","4","","","","","fixation","","","",""
"389.7000000476837","img/image_stim_h_stroop.png","72","image-keyboard-response","12","93513","0.0-9.0-1.1","03t4j2","Sat Feb 05 2022 00:42:37 GMT+0100 (Central European Standard Time)","2022","2","5","0","42","37","ga02","19","female","left","85","36","28","16","4","","","","","test","happy","fear","h","true"
"null","<div style=""font-size:60px;"">+</div>","null","html-keyboard-response","13","95519","0.0-9.0-0.2","03t4j2","Sat Feb 05 2022 00:42:37 GMT+0100 (Central European Standard Time)","2022","2","5","0","42","37","ga02","19","female","left","85","36","28","16","4","","","","","fixation","","","",""
"326.2999999523163","img/image_stim_h.png","72","image-keyboard-response","14","95846","0.0-9.0-1.2","03t4j2","Sat Feb 05 2022 00:42:37 GMT+0100 (Central European Standard Time)","2022","2","5","0","42","37","ga02","19","female","left","85","36","28","16","4","","","","","test","happy","happy","h","true"
"null","<div style=""font-size:60px;"">+</div>","null","html-keyboard-response","15","97351","0.0-9.0-0.3","03t4j2","Sat Feb 05 2022 00:42:37 GMT+0100 (Central European Standard Time)","2022","2","5","0","42","37","ga02","19","female","left","85","36","28","16","4","","","","","fixation","","","",""
"406.39999997615814","img/image_stim_f.png","70","image-keyboard-response","16","97759","0.0-9.0-1.3","03t4j2","Sat Feb 05 2022 00:42:37 GMT+0100 (Central European Standard Time)","2022","2","5","0","42","37","ga02","19","female","left","85","36","28","16","4","","","","","test","fear","fear","f","true"
"null","<div style=""font-size:60px;"">+</div>","null","html-keyboard-response","17","98778","0.0-9.0-0.4","03t4j2","Sat Feb 05 2022 00:42:37 GMT+0100 (Central European Standard Time)","2022","2","5","0","42","37","ga02","19","female","left","85","36","28","16","4","","","","","fixation","","","",""
"424.2000000476837","img/image_stim_h_stroop.png","72","image-keyboard-response","18","99204","0.0-9.0-1.4","03t4j2","Sat Feb 05 2022 00:42:37 GMT+0100 (Central European Standard Time)","2022","2","5","0","42","37","ga02","19","female","left","85","36","28","16","4","","","","","test","happy","fear","h","true"
"null","<div style=""font-size:60px;"">+</div>","null","html-keyboard-response","19","99468","0.0-9.0-0.5","03t4j2","Sat Feb 05 2022 00:42:37 GMT+0100 (Central European Standard Time)","2022","2","5","0","42","37","ga02","19","female","left","85","36","28","16","4","","","","","fixation","","","",""
"436.5","img/image_stim_f.png","70","image-keyboard-response","20","99906","0.0-9.0-1.5","03t4j2","Sat Feb 05 2022 00:42:37 GMT+0100 (Central European Standard Time)","2022","2","5","0","42","37","ga02","19","female","left","85","36","28","16","4","","","","","test","fear","fear","f","true"
"null","<div style=""font-size:60px;"">+</div>","null","html-keyboard-response","21","101916","0.0-9.0-0.6","03t4j2","Sat Feb 05 2022 00:42:37 GMT+0100 (Central European Standard Time)","2022","2","5","0","42","37","ga02","19","female","left","85","36","28","16","4","","","","","fixation","","","",""
"392.2999999523163","img/image_stim_h.png","70","image-keyboard-response","22","102310","0.0-9.0-1.6","03t4j2","Sat Feb 05 2022 00:42:37 GMT+0100 (Central European Standard Time)","2022","2","5","0","42","37","ga02","19","female","left","85","36","28","16","4","","","","","test","happy","happy","h","false"
"null","<div style=""font-size:60px;"">+</div>","null","html-keyboard-response","23","102828","0.0-9.0-0.7","03t4j2","Sat Feb 05 2022 00:42:37 GMT+0100 (Central European Standard Time)","2022","2","5","0","42","37","ga02","19","female","left","85","36","28","16","4","","","","","fixation","","","",""
"473","img/image_stim_f_stroop.png","70","image-keyboard-response","24","103302","0.0-9.0-1.7","03t4j2","Sat Feb 05 2022 00:42:37 GMT+0100 (Central European Standard Time)","2022","2","5","0","42","37","ga02","19","female","left","85","36","28","16","4","","","","","test","fear","happy","f","true"
"null","<div style=""font-size:60px;"">+</div>","null","html-keyboard-response","25","105065","0.0-9.0-0.8","03t4j2","Sat Feb 05 2022 00:42:37 GMT+0100 (Central European Standard Time)","2022","2","5","0","42","37","ga02","19","female","left","85","36","28","16","4","","","","","fixation","","","",""
"543.1999999284744","img/image_stim_f_stroop.png","70","image-keyboard-response","26","105610","0.0-9.0-1.8","03t4j2","Sat Feb 05 2022 00:42:37 GMT+0100 (Central European Standard Time)","2022","2","5","0","42","37","ga02","19","female","left","85","36","28","16","4","","","","","test","fear","happy","f","true"
"null","<div style=""font-size:60px;"">+</div>","null","html-keyboard-response","27","106128","0.0-9.0-0.9","03t4j2","Sat Feb 05 2022 00:42:37 GMT+0100 (Central European Standard Time)","2022","2","5","0","42","37","ga02","19","female","left","85","36","28","16","4","","","","","fixation","","","",""
"408.7999999523163","img/image_stim_h.png","72","image-keyboard-response","28","106538","0.0-9.0-1.9","03t4j2","Sat Feb 05 2022 00:42:37 GMT+0100 (Central European Standard Time)","2022","2","5","0","42","37","ga02","19","female","left","85","36","28","16","4","","","","","test","happy","happy","h","true"
"null","<div style=""font-size:60px;"">+</div>","null","html-keyboard-response","29","107304","0.0-9.0-0.10","03t4j2","Sat Feb 05 2022 00:42:37 GMT+0100 (Central European Standard Time)","2022","2","5","0","42","37","ga02","19","female","left","85","36","28","16","4","","","","","fixation","","","",""
"365.2000000476837","img/image_stim_f.png","72","image-keyboard-response","30","107670","0.0-9.0-1.10","03t4j2","Sat Feb 05 2022 00:42:37 GMT+0100 (Central European Standard Time)","2022","2","5","0","42","37","ga02","19","female","left","85","36","28","16","4","","","","","test","fear","fear","f","false"
"null","<div style=""font-size:60px;"">+</div>","null","html-keyboard-response","31","108182","0.0-9.0-0.11","03t4j2","Sat Feb 05 2022 00:42:37 GMT+0100 (Central European Standard Time)","2022","2","5","0","42","37","ga02","19","female","left","85","36","28","16","4","","","","","fixation","","","",""
"477.10000002384186","img/image_stim_h_stroop.png","72","image-keyboard-response","32","108660","0.0-9.0-1.11","03t4j2","Sat Feb 05 2022 00:42:37 GMT+0100 (Central European Standard Time)","2022","2","5","0","42","37","ga02","19","female","left","85","36","28","16","4","","","","","test","happy","fear","h","true"
"null","<div style=""font-size:60px;"">+</div>","null","html-keyboard-response","33","109164","0.0-9.0-0.12","03t4j2","Sat Feb 05 2022 00:42:37 GMT+0100 (Central European Standard Time)","2022","2","5","0","42","37","ga02","19","female","left","85","36","28","16","4","","","","","fixation","","","",""
"349.5","img/image_stim_h_stroop.png","72","image-keyboard-response","34","109514","0.0-9.0-1.12","03t4j2","Sat Feb 05 2022 00:42:37 GMT+0100 (Central European Standard Time)","2022","2","5","0","42","37","ga02","19","female","left","85","36","28","16","4","","","","","test","happy","fear","h","true"
"null","<div style=""font-size:60px;"">+</div>","null","html-keyboard-response","35","110028","0.0-9.0-0.13","03t4j2","Sat Feb 05 2022 00:42:37 GMT+0100 (Central European Standard Time)","2022","2","5","0","42","37","ga02","19","female","left","85","36","28","16","4","","","","","fixation","","","",""
"408.39999997615814","img/image_stim_f.png","70","image-keyboard-response","36","110437","0.0-9.0-1.13","03t4j2","Sat Feb 05 2022 00:42:37 GMT+0100 (Central European Standard Time)","2022","2","5","0","42","37","ga02","19","female","left","85","36","28","16","4","","","","","test","fear","fear","f","true"
"null","<div style=""font-size:60px;"">+</div>","null","html-keyboard-response","37","111202","0.0-9.0-0.14","03t4j2","Sat Feb 05 2022 00:42:37 GMT+0100 (Central European Standard Time)","2022","2","5","0","42","37","ga02","19","female","left","85","36","28","16","4","","","","","fixation","","","",""
"324.2000000476837","img/image_stim_f_stroop.png","70","image-keyboard-response","38","111528","0.0-9.0-1.14","03t4j2","Sat Feb 05 2022 00:42:37 GMT+0100 (Central European Standard Time)","2022","2","5","0","42","37","ga02","19","female","left","85","36","28","16","4","","","","","test","fear","happy","f","true"
"null","<div style=""font-size:60px;"">+</div>","null","html-keyboard-response","39","112043","0.0-9.0-0.15","03t4j2","Sat Feb 05 2022 00:42:37 GMT+0100 (Central European Standard Time)","2022","2","5","0","42","37","ga02","19","female","left","85","36","28","16","4","","","","","fixation","","","",""
"427.89999997615814","img/image_stim_h.png","72","image-keyboard-response","40","112472","0.0-9.0-1.15","03t4j2","Sat Feb 05 2022 00:42:37 GMT+0100 (Central European Standard Time)","2022","2","5","0","42","37","ga02","19","female","left","85","36","28","16","4","","","","","test","happy","happy","h","true"
"null","<div style=""font-size:60px;"">+</div>","null","html-keyboard-response","41","113232","0.0-9.0-0.16","03t4j2","Sat Feb 05 2022 00:42:37 GMT+0100 (Central European Standard Time)","2022","2","5","0","42","37","ga02","19","female","left","85","36","28","16","4","","","","","fixation","","","",""
"440.5","img/image_stim_f.png","70","image-keyboard-response","42","113673","0.0-9.0-1.16","03t4j2","Sat Feb 05 2022 00:42:37 GMT+0100 (Central European Standard Time)","2022","2","5","0","42","37","ga02","19","female","left","85","36","28","16","4","","","","","test","fear","fear","f","true"
"null","<div style=""font-size:60px;"">+</div>","null","html-keyboard-response","43","114429","0.0-9.0-0.17","03t4j2","Sat Feb 05 2022 00:42:37 GMT+0100 (Central European Standard Time)","2022","2","5","0","42","37","ga02","19","female","left","85","36","28","16","4","","","","","fixation","","","",""
"358.09999990463257","img/image_stim_h_stroop.png","72","image-keyboard-response","44","114789","0.0-9.0-1.17","03t4j2","Sat Feb 05 2022 00:42:37 GMT+0100 (Central European Standard Time)","2022","2","5","0","42","37","ga02","19","female","left","85","36","28","16","4","","","","","test","happy","fear","h","true"
"null","<div style=""font-size:60px;"">+</div>","null","html-keyboard-response","45","116547","0.0-9.0-0.18","03t4j2","Sat Feb 05 2022 00:42:37 GMT+0100 (Central European Standard Time)","2022","2","5","0","42","37","ga02","19","female","left","85","36","28","16","4","","","","","fixation","","","",""
"422.2999999523163","img/image_stim_h.png","72","image-keyboard-response","46","116971","0.0-9.0-1.18","03t4j2","Sat Feb 05 2022 00:42:37 GMT+0100 (Central European Standard Time)","2022","2","5","0","42","37","ga02","19","female","left","85","36","28","16","4","","","","","test","happy","happy","h","true"
"null","<div style=""font-size:60px;"">+</div>","null","html-keyboard-response","47","118975","0.0-9.0-0.19","03t4j2","Sat Feb 05 2022 00:42:37 GMT+0100 (Central European Standard Time)","2022","2","5","0","42","37","ga02","19","female","left","85","36","28","16","4","","","","","fixation","","","",""
"395.39999997615814","img/image_stim_f_stroop.png","70","image-keyboard-response","48","119372","0.0-9.0-1.19","03t4j2","Sat Feb 05 2022 00:42:37 GMT+0100 (Central European Standard Time)","2022","2","5","0","42","37","ga02","19","female","left","85","36","28","16","4","","","","","test","fear","happy","f","true"
"null","<div style=""font-size:60px;"">+</div>","null","html-keyboard-response","49","120378","0.0-9.0-0.20","03t4j2","Sat Feb 05 2022 00:42:37 GMT+0100 (Central European Standard Time)","2022","2","5","0","42","37","ga02","19","female","left","85","36","28","16","4","","","","","fixation","","","",""
"344.10000002384186","img/image_stim_h.png","72","image-keyboard-response","50","120723","0.0-9.0-1.20","03t4j2","Sat Feb 05 2022 00:42:37 GMT+0100 (Central European Standard Time)","2022","2","5","0","42","37","ga02","19","female","left","85","36","28","16","4","","","","","test","happy","happy","h","true"
"null","<div style=""font-size:60px;"">+</div>","null","html-keyboard-response","51","121230","0.0-9.0-0.21","03t4j2","Sat Feb 05 2022 00:42:37 GMT+0100 (Central European Standard Time)","2022","2","5","0","42","37","ga02","19","female","left","85","36","28","16","4","","","","","fixation","","","",""
"498.89999997615814","img/image_stim_f_stroop.png","70","image-keyboard-response","52","121730","0.0-9.0-1.21","03t4j2","Sat Feb 05 2022 00:42:37 GMT+0100 (Central European Standard Time)","2022","2","5","0","42","37","ga02","19","female","left","85","36","28","16","4","","","","","test","fear","happy","f","true"
"null","<div style=""font-size:60px;"">+</div>","null","html-keyboard-response","53","123740","0.0-9.0-0.22","03t4j2","Sat Feb 05 2022 00:42:37 GMT+0100 (Central European Standard Time)","2022","2","5","0","42","37","ga02","19","female","left","85","36","28","16","4","","","","","fixation","","","",""
"357.09999990463257","img/image_stim_h_stroop.png","72","image-keyboard-response","54","124099","0.0-9.0-1.22","03t4j2","Sat Feb 05 2022 00:42:37 GMT+0100 (Central European Standard Time)","2022","2","5","0","42","37","ga02","19","female","left","85","36","28","16","4","","","","","test","happy","fear","h","true"
"null","<div style=""font-size:60px;"">+</div>","null","html-keyboard-response","55","124868","0.0-9.0-0.23","03t4j2","Sat Feb 05 2022 00:42:37 GMT+0100 (Central European Standard Time)","2022","2","5","0","42","37","ga02","19","female","left","85","36","28","16","4","","","","","fixation","","","",""
"385.2000000476837","img/image_stim_f.png","70","image-keyboard-response","56","125254","0.0-9.0-1.23","03t4j2","Sat Feb 05 2022 00:42:37 GMT+0100 (Central European Standard Time)","2022","2","5","0","42","37","ga02","19","female","left","85","36","28","16","4","","","","","test","fear","fear","f","true"
"null","<div style=""font-size:60px;"">+</div>","null","html-keyboard-response","57","126022","0.0-9.0-0.24","03t4j2","Sat Feb 05 2022 00:42:37 GMT+0100 (Central European Standard Time)","2022","2","5","0","42","37","ga02","19","female","left","85","36","28","16","4","","","","","fixation","","","",""
"408.39999997615814","img/image_stim_f_stroop.png","70","image-keyboard-response","58","126431","0.0-9.0-1.24","03t4j2","Sat Feb 05 2022 00:42:37 GMT+0100 (Central European Standard Time)","2022","2","5","0","42","37","ga02","19","female","left","85","36","28","16","4","","","","","test","fear","happy","f","true"
"null","<div style=""font-size:60px;"">+</div>","null","html-keyboard-response","59","128438","0.0-9.0-0.25","03t4j2","Sat Feb 05 2022 00:42:37 GMT+0100 (Central European Standard Time)","2022","2","5","0","42","37","ga02","19","female","left","85","36","28","16","4","","","","","fixation","","","",""
"293.1999999284744","img/image_stim_h.png","72","image-keyboard-response","60","128732","0.0-9.0-1.25","03t4j2","Sat Feb 05 2022 00:42:37 GMT+0100 (Central European Standard Time)","2022","2","5","0","42","37","ga02","19","female","left","85","36","28","16","4","","","","","test","happy","happy","h","true"
"null","<div style=""font-size:60px;"">+</div>","null","html-keyboard-response","61","129496","0.0-9.0-0.26","03t4j2","Sat Feb 05 2022 00:42:37 GMT+0100 (Central European Standard Time)","2022","2","5","0","42","37","ga02","19","female","left","85","36","28","16","4","","","","","fixation","","","",""
"412.39999997615814","img/image_stim_f.png","70","image-keyboard-response","62","129910","0.0-9.0-1.26","03t4j2","Sat Feb 05 2022 00:42:37 GMT+0100 (Central European Standard Time)","2022","2","5","0","42","37","ga02","19","female","left","85","36","28","16","4","","","","","test","fear","fear","f","true"
"null","<div style=""font-size:60px;"">+</div>","null","html-keyboard-response","63","131169","0.0-9.0-0.27","03t4j2","Sat Feb 05 2022 00:42:37 GMT+0100 (Central European Standard Time)","2022","2","5","0","42","37","ga02","19","female","left","85","36","28","16","4","","","","","fixation","","","",""
"313.5","img/image_stim_h_stroop.png","72","image-keyboard-response","64","131484","0.0-9.0-1.27","03t4j2","Sat Feb 05 2022 00:42:37 GMT+0100 (Central European Standard Time)","2022","2","5","0","42","37","ga02","19","female","left","85","36","28","16","4","","","","","test","happy","fear","h","true"
"null","<div style=""font-size:60px;"">+</div>","null","html-keyboard-response","65","132990","0.0-9.0-0.28","03t4j2","Sat Feb 05 2022 00:42:37 GMT+0100 (Central European Standard Time)","2022","2","5","0","42","37","ga02","19","female","left","85","36","28","16","4","","","","","fixation","","","",""
"369.39999997615814","img/image_stim_f.png","70","image-keyboard-response","66","133360","0.0-9.0-1.28","03t4j2","Sat Feb 05 2022 00:42:37 GMT+0100 (Central European Standard Time)","2022","2","5","0","42","37","ga02","19","female","left","85","36","28","16","4","","","","","test","fear","fear","f","true"
"null","<div style=""font-size:60px;"">+</div>","null","html-keyboard-response","67","134377","0.0-9.0-0.29","03t4j2","Sat Feb 05 2022 00:42:37 GMT+0100 (Central European Standard Time)","2022","2","5","0","42","37","ga02","19","female","left","85","36","28","16","4","","","","","fixation","","","",""
"376.6999999284744","img/image_stim_h_stroop.png","72","image-keyboard-response","68","134755","0.0-9.0-1.29","03t4j2","Sat Feb 05 2022 00:42:37 GMT+0100 (Central European Standard Time)","2022","2","5","0","42","37","ga02","19","female","left","85","36","28","16","4","","","","","test","happy","fear","h","true"
"null","<div style=""font-size:60px;"">+</div>","null","html-keyboard-response","69","136013","0.0-9.0-0.30","03t4j2","Sat Feb 05 2022 00:42:37 GMT+0100 (Central European Standard Time)","2022","2","5","0","42","37","ga02","19","female","left","85","36","28","16","4","","","","","fixation","","","",""
"356","img/image_stim_f_stroop.png","70","image-keyboard-response","70","136370","0.0-9.0-1.30","03t4j2","Sat Feb 05 2022 00:42:37 GMT+0100 (Central European Standard Time)","2022","2","5","0","42","37","ga02","19","female","left","85","36","28","16","4","","","","","test","fear","happy","f","true"
"null","<div style=""font-size:60px;"">+</div>","null","html-keyboard-response","71","137134","0.0-9.0-0.31","03t4j2","Sat Feb 05 2022 00:42:37 GMT+0100 (Central European Standard Time)","2022","2","5","0","42","37","ga02","19","female","left","85","36","28","16","4","","","","","fixation","","","",""
"345.10000002384186","img/image_stim_h.png","72","image-keyboard-response","72","137481","0.0-9.0-1.31","03t4j2","Sat Feb 05 2022 00:42:37 GMT+0100 (Central European Standard Time)","2022","2","5","0","42","37","ga02","19","female","left","85","36","28","16","4","","","","","test","happy","happy","h","true"
"null","<div style=""font-size:60px;"">+</div>","null","html-keyboard-response","73","138736","0.0-9.0-0.32","03t4j2","Sat Feb 05 2022 00:42:37 GMT+0100 (Central European Standard Time)","2022","2","5","0","42","37","ga02","19","female","left","85","36","28","16","4","","","","","fixation","","","",""
"321.60000002384186","img/image_stim_h_stroop.png","70","image-keyboard-response","74","139059","0.0-9.0-1.32","03t4j2","Sat Feb 05 2022 00:42:37 GMT+0100 (Central European Standard Time)","2022","2","5","0","42","37","ga02","19","female","left","85","36","28","16","4","","","","","test","happy","fear","h","false"
"null","<div style=""font-size:60px;"">+</div>","null","html-keyboard-response","75","140319","0.0-9.0-0.33","03t4j2","Sat Feb 05 2022 00:42:37 GMT+0100 (Central European Standard Time)","2022","2","5","0","42","37","ga02","19","female","left","85","36","28","16","4","","","","","fixation","","","",""
"363.89999997615814","img/image_stim_h.png","72","image-keyboard-response","76","140685","0.0-9.0-1.33","03t4j2","Sat Feb 05 2022 00:42:37 GMT+0100 (Central European Standard Time)","2022","2","5","0","42","37","ga02","19","female","left","85","36","28","16","4","","","","","test","happy","happy","h","true"
"null","<div style=""font-size:60px;"">+</div>","null","html-keyboard-response","77","141693","0.0-9.0-0.34","03t4j2","Sat Feb 05 2022 00:42:37 GMT+0100 (Central European Standard Time)","2022","2","5","0","42","37","ga02","19","female","left","85","36","28","16","4","","","","","fixation","","","",""
"353.8000000715256","img/image_stim_f.png","70","image-keyboard-response","78","142049","0.0-9.0-1.34","03t4j2","Sat Feb 05 2022 00:42:37 GMT+0100 (Central European Standard Time)","2022","2","5","0","42","37","ga02","19","female","left","85","36","28","16","4","","","","","test","fear","fear","f","true"
"null","<div style=""font-size:60px;"">+</div>","null","html-keyboard-response","79","144056","0.0-9.0-0.35","03t4j2","Sat Feb 05 2022 00:42:37 GMT+0100 (Central European Standard Time)","2022","2","5","0","42","37","ga02","19","female","left","85","36","28","16","4","","","","","fixation","","","",""
"351.10000002384186","img/image_stim_f_stroop.png","70","image-keyboard-response","80","144408","0.0-9.0-1.35","03t4j2","Sat Feb 05 2022 00:42:37 GMT+0100 (Central European Standard Time)","2022","2","5","0","42","37","ga02","19","female","left","85","36","28","16","4","","","","","test","fear","happy","f","true"
