"rt","stimulus","key_press","trial_type","trial_index","time_elapsed","internal_node_id","exp_id","Time","year","month","date","hour","minute","seconds","id","age","Gender","Handedness","mood","fresh","hunger","H_since_Sleep","H_since_Eat","responses","question_order","slider_start","response","test_part","face","word","correct_response","correct"
"1057.4849999975413","<p>Welcome to this experiment on daily rhythms and cognition.</p><p>First you will be asked some questions about yourself.</p><p>Then a short experiment will measure your response time.</p><p>Take the test at different times of the day/night.</p><p>The test is anonymous, but comparing your data across time is important.</p><p>Therefore, please make up and remember a personal ID (two letters+ two numbers).</p><p>Use this ID whenever taking the test.</p><p><strong>Press any key to begin.</strong></p>","32","html-keyboard-response","0","1067","0.0-0.0","f9posw","Thu Feb 18 2021 14:28:43 GMT+0100 (Centraleuropæisk normaltid)","2021","2","18","14","28","43","mk97","24","male","left","50","50","70","6","0","","","","","","","","",""
"3535.3500000201166","","","survey-text","1","4619","0.0-1.0","f9posw","Thu Feb 18 2021 14:28:43 GMT+0100 (Centraleuropæisk normaltid)","2021","2","18","14","28","43","mk97","24","male","left","50","50","70","6","0","{""Q0"":""mk97""}","","","","","","","",""
"2017.7499999990687","","","survey-text","2","6645","0.0-2.0","f9posw","Thu Feb 18 2021 14:28:43 GMT+0100 (Centraleuropæisk normaltid)","2021","2","18","14","28","43","mk97","24","male","left","50","50","70","6","0","{""Q0"":""24""}","","","","","","","",""
"4079.3000000121538","","","survey-multi-select","3","10741","0.0-3.0","f9posw","Thu Feb 18 2021 14:28:43 GMT+0100 (Centraleuropæisk normaltid)","2021","2","18","14","28","43","mk97","24","male","left","50","50","70","6","0","{""Gender"":[""male""],""Hand"":[""left""]}","[0,1]","","","","","","",""
"2601.6099999833386","<p>How Sad/Angry or Happy are you right now?</p>","","html-slider-response","4","13349","0.0-4.0","f9posw","Thu Feb 18 2021 14:28:43 GMT+0100 (Centraleuropæisk normaltid)","2021","2","18","14","28","43","mk97","24","male","left","50","50","70","6","0","","","50","50","","","","",""
"989.5699999760836","<p>How Tired/Sleepy/Distracted or Fresh/Awake/Alert are you right now?</p>","","html-slider-response","5","14343","0.0-5.0","f9posw","Thu Feb 18 2021 14:28:43 GMT+0100 (Centraleuropæisk normaltid)","2021","2","18","14","28","43","mk97","24","male","left","50","50","70","6","0","","","50","50","","","","",""
"4557.8849999874365","<p>How Hungry or Satiated are you right now?</p>","","html-slider-response","6","18904","0.0-6.0","f9posw","Thu Feb 18 2021 14:28:43 GMT+0100 (Centraleuropæisk normaltid)","2021","2","18","14","28","43","mk97","24","male","left","50","50","70","6","0","","","50","70","","","","",""
"9511.23999999254","","","survey-multi-select","7","28470","0.0-7.0","f9posw","Thu Feb 18 2021 14:28:43 GMT+0100 (Centraleuropæisk normaltid)","2021","2","18","14","28","43","mk97","24","male","left","50","50","70","6","0","{""Sleep"":[""6""],""Eat"":[""0""]}","[0,1]","","","","","","",""
"1566.0849999985658","<p>In this experiment, a face and a word will appear in the center of the screen.</p><p>If the face is <strong>happy</strong>, press the letter <strong>H</strong> with <strong>right</strong> index finger.</p><p>If the face is <strong>fearful</strong>, press the letter <strong>F</strong> with <strong>left</strong> index finger.</p><p><strong>Ignore the written words</strong>. Respond as fast as possible while being correct. </p><div style='width: 900px;'><div style='float: left;'><img src='img/stimuli_stroop_happy.png'></img><p class='small'><strong>Press the H key for happy faces</strong></p></div><div class='float: right;'><img src='img/stimuli_stroop_fear.png'></img><p class='small'><strong>Press the F key for faces with fear</strong></p></div></div><p>If the screen turns blank, press <strong>SPACE</strong></p><p><strong>Press any key to begin.</strong></p>","32","html-keyboard-response","8","30042","0.0-8.0","f9posw","Thu Feb 18 2021 14:28:43 GMT+0100 (Centraleuropæisk normaltid)","2021","2","18","14","28","43","mk97","24","male","left","50","50","70","6","0","","","","","","","","",""
"null","<div style=""font-size:60px;"">+</div>","null","html-keyboard-response","9","32804","0.0-9.0-0.0","f9posw","Thu Feb 18 2021 14:28:43 GMT+0100 (Centraleuropæisk normaltid)","2021","2","18","14","28","43","mk97","24","male","left","50","50","70","6","0","","","","","fixation","","","",""
"507.4399999866728","img/image_stim_f.png","70","image-keyboard-response","10","33361","0.0-9.0-1.0","f9posw","Thu Feb 18 2021 14:28:43 GMT+0100 (Centraleuropæisk normaltid)","2021","2","18","14","28","43","mk97","24","male","left","50","50","70","6","0","","","","","test","fear","fear","f","true"
"null","<div style=""font-size:60px;"">+</div>","null","html-keyboard-response","11","34621","0.0-9.0-0.1","f9posw","Thu Feb 18 2021 14:28:43 GMT+0100 (Centraleuropæisk normaltid)","2021","2","18","14","28","43","mk97","24","male","left","50","50","70","6","0","","","","","fixation","","","",""
"473.99500000756234","img/image_stim_f_stroop.png","70","image-keyboard-response","12","35103","0.0-9.0-1.1","f9posw","Thu Feb 18 2021 14:28:43 GMT+0100 (Centraleuropæisk normaltid)","2021","2","18","14","28","43","mk97","24","male","left","50","50","70","6","0","","","","","test","fear","happy","f","true"
"null","<div style=""font-size:60px;"">+</div>","null","html-keyboard-response","13","36112","0.0-9.0-0.2","f9posw","Thu Feb 18 2021 14:28:43 GMT+0100 (Centraleuropæisk normaltid)","2021","2","18","14","28","43","mk97","24","male","left","50","50","70","6","0","","","","","fixation","","","",""
"504.0349999908358","img/image_stim_h_stroop.png","72","image-keyboard-response","14","36622","0.0-9.0-1.2","f9posw","Thu Feb 18 2021 14:28:43 GMT+0100 (Centraleuropæisk normaltid)","2021","2","18","14","28","43","mk97","24","male","left","50","50","70","6","0","","","","","test","happy","fear","h","true"
"null","<div style=""font-size:60px;"">+</div>","null","html-keyboard-response","15","36884","0.0-9.0-0.3","f9posw","Thu Feb 18 2021 14:28:43 GMT+0100 (Centraleuropæisk normaltid)","2021","2","18","14","28","43","mk97","24","male","left","50","50","70","6","0","","","","","fixation","","","",""
"529.6049999888055","img/image_stim_h.png","72","image-keyboard-response","16","37420","0.0-9.0-1.3","f9posw","Thu Feb 18 2021 14:28:43 GMT+0100 (Centraleuropæisk normaltid)","2021","2","18","14","28","43","mk97","24","male","left","50","50","70","6","0","","","","","test","happy","happy","h","true"
"null","<div style=""font-size:60px;"">+</div>","null","html-keyboard-response","17","39431","0.0-9.0-0.4","f9posw","Thu Feb 18 2021 14:28:43 GMT+0100 (Centraleuropæisk normaltid)","2021","2","18","14","28","43","mk97","24","male","left","50","50","70","6","0","","","","","fixation","","","",""
"575.7750000047963","img/image_stim_f.png","70","image-keyboard-response","18","40015","0.0-9.0-1.4","f9posw","Thu Feb 18 2021 14:28:43 GMT+0100 (Centraleuropæisk normaltid)","2021","2","18","14","28","43","mk97","24","male","left","50","50","70","6","0","","","","","test","fear","fear","f","true"
"null","<div style=""font-size:60px;"">+</div>","null","html-keyboard-response","19","40525","0.0-9.0-0.5","f9posw","Thu Feb 18 2021 14:28:43 GMT+0100 (Centraleuropæisk normaltid)","2021","2","18","14","28","43","mk97","24","male","left","50","50","70","6","0","","","","","fixation","","","",""
"556.2999999965541","img/image_stim_h_stroop.png","72","image-keyboard-response","20","41088","0.0-9.0-1.5","f9posw","Thu Feb 18 2021 14:28:43 GMT+0100 (Centraleuropæisk normaltid)","2021","2","18","14","28","43","mk97","24","male","left","50","50","70","6","0","","","","","test","happy","fear","h","true"
"null","<div style=""font-size:60px;"">+</div>","null","html-keyboard-response","21","41351","0.0-9.0-0.6","f9posw","Thu Feb 18 2021 14:28:43 GMT+0100 (Centraleuropæisk normaltid)","2021","2","18","14","28","43","mk97","24","male","left","50","50","70","6","0","","","","","fixation","","","",""
"543.5900000156835","img/image_stim_f_stroop.png","70","image-keyboard-response","22","41903","0.0-9.0-1.6","f9posw","Thu Feb 18 2021 14:28:43 GMT+0100 (Centraleuropæisk normaltid)","2021","2","18","14","28","43","mk97","24","male","left","50","50","70","6","0","","","","","test","fear","happy","f","true"
"null","<div style=""font-size:60px;"">+</div>","null","html-keyboard-response","23","43916","0.0-9.0-0.7","f9posw","Thu Feb 18 2021 14:28:43 GMT+0100 (Centraleuropæisk normaltid)","2021","2","18","14","28","43","mk97","24","male","left","50","50","70","6","0","","","","","fixation","","","",""
"486.4549999765586","img/image_stim_h.png","72","image-keyboard-response","24","44409","0.0-9.0-1.7","f9posw","Thu Feb 18 2021 14:28:43 GMT+0100 (Centraleuropæisk normaltid)","2021","2","18","14","28","43","mk97","24","male","left","50","50","70","6","0","","","","","test","happy","happy","h","true"
"null","<div style=""font-size:60px;"">+</div>","null","html-keyboard-response","25","45665","0.0-9.0-0.8","f9posw","Thu Feb 18 2021 14:28:43 GMT+0100 (Centraleuropæisk normaltid)","2021","2","18","14","28","43","mk97","24","male","left","50","50","70","6","0","","","","","fixation","","","",""
"536.8600000219885","img/image_stim_h_stroop.png","72","image-keyboard-response","26","46211","0.0-9.0-1.8","f9posw","Thu Feb 18 2021 14:28:43 GMT+0100 (Centraleuropæisk normaltid)","2021","2","18","14","28","43","mk97","24","male","left","50","50","70","6","0","","","","","test","happy","fear","h","true"
"null","<div style=""font-size:60px;"">+</div>","null","html-keyboard-response","27","46717","0.0-9.0-0.9","f9posw","Thu Feb 18 2021 14:28:43 GMT+0100 (Centraleuropæisk normaltid)","2021","2","18","14","28","43","mk97","24","male","left","50","50","70","6","0","","","","","fixation","","","",""
"529.6399999933783","img/image_stim_f.png","70","image-keyboard-response","28","47250","0.0-9.0-1.9","f9posw","Thu Feb 18 2021 14:28:43 GMT+0100 (Centraleuropæisk normaltid)","2021","2","18","14","28","43","mk97","24","male","left","50","50","70","6","0","","","","","test","fear","fear","f","true"
"null","<div style=""font-size:60px;"">+</div>","null","html-keyboard-response","29","48262","0.0-9.0-0.10","f9posw","Thu Feb 18 2021 14:28:43 GMT+0100 (Centraleuropæisk normaltid)","2021","2","18","14","28","43","mk97","24","male","left","50","50","70","6","0","","","","","fixation","","","",""
"598.2099999964703","img/image_stim_f_stroop.png","70","image-keyboard-response","30","48869","0.0-9.0-1.10","f9posw","Thu Feb 18 2021 14:28:43 GMT+0100 (Centraleuropæisk normaltid)","2021","2","18","14","28","43","mk97","24","male","left","50","50","70","6","0","","","","","test","fear","happy","f","true"
"null","<div style=""font-size:60px;"">+</div>","null","html-keyboard-response","31","49632","0.0-9.0-0.11","f9posw","Thu Feb 18 2021 14:28:43 GMT+0100 (Centraleuropæisk normaltid)","2021","2","18","14","28","43","mk97","24","male","left","50","50","70","6","0","","","","","fixation","","","",""
"482.3150000011083","img/image_stim_h.png","72","image-keyboard-response","32","50123","0.0-9.0-1.11","f9posw","Thu Feb 18 2021 14:28:43 GMT+0100 (Centraleuropæisk normaltid)","2021","2","18","14","28","43","mk97","24","male","left","50","50","70","6","0","","","","","test","happy","happy","h","true"
"null","<div style=""font-size:60px;"">+</div>","null","html-keyboard-response","33","52136","0.0-9.0-0.12","f9posw","Thu Feb 18 2021 14:28:43 GMT+0100 (Centraleuropæisk normaltid)","2021","2","18","14","28","43","mk97","24","male","left","50","50","70","6","0","","","","","fixation","","","",""
"494.50999998953193","img/image_stim_h.png","72","image-keyboard-response","34","52637","0.0-9.0-1.12","f9posw","Thu Feb 18 2021 14:28:43 GMT+0100 (Centraleuropæisk normaltid)","2021","2","18","14","28","43","mk97","24","male","left","50","50","70","6","0","","","","","test","happy","happy","h","true"
"null","<div style=""font-size:60px;"">+</div>","null","html-keyboard-response","35","54398","0.0-9.0-0.13","f9posw","Thu Feb 18 2021 14:28:43 GMT+0100 (Centraleuropæisk normaltid)","2021","2","18","14","28","43","mk97","24","male","left","50","50","70","6","0","","","","","fixation","","","",""
"533.610000013141","img/image_stim_f.png","70","image-keyboard-response","36","54937","0.0-9.0-1.13","f9posw","Thu Feb 18 2021 14:28:43 GMT+0100 (Centraleuropæisk normaltid)","2021","2","18","14","28","43","mk97","24","male","left","50","50","70","6","0","","","","","test","fear","fear","f","true"
"null","<div style=""font-size:60px;"">+</div>","null","html-keyboard-response","37","56199","0.0-9.0-0.14","f9posw","Thu Feb 18 2021 14:28:43 GMT+0100 (Centraleuropæisk normaltid)","2021","2","18","14","28","43","mk97","24","male","left","50","50","70","6","0","","","","","fixation","","","",""
"599.5450000045821","img/image_stim_f_stroop.png","70","image-keyboard-response","38","56807","0.0-9.0-1.14","f9posw","Thu Feb 18 2021 14:28:43 GMT+0100 (Centraleuropæisk normaltid)","2021","2","18","14","28","43","mk97","24","male","left","50","50","70","6","0","","","","","test","fear","happy","f","true"
"null","<div style=""font-size:60px;"">+</div>","null","html-keyboard-response","39","58318","0.0-9.0-0.15","f9posw","Thu Feb 18 2021 14:28:43 GMT+0100 (Centraleuropæisk normaltid)","2021","2","18","14","28","43","mk97","24","male","left","50","50","70","6","0","","","","","fixation","","","",""
"468.7299999932293","img/image_stim_h_stroop.png","72","image-keyboard-response","40","58794","0.0-9.0-1.15","f9posw","Thu Feb 18 2021 14:28:43 GMT+0100 (Centraleuropæisk normaltid)","2021","2","18","14","28","43","mk97","24","male","left","50","50","70","6","0","","","","","test","happy","fear","h","true"
"null","<div style=""font-size:60px;"">+</div>","null","html-keyboard-response","41","59810","0.0-9.0-0.16","f9posw","Thu Feb 18 2021 14:28:43 GMT+0100 (Centraleuropæisk normaltid)","2021","2","18","14","28","43","mk97","24","male","left","50","50","70","6","0","","","","","fixation","","","",""
"420.7100000057835","img/image_stim_h_stroop.png","72","image-keyboard-response","42","60239","0.0-9.0-1.16","f9posw","Thu Feb 18 2021 14:28:43 GMT+0100 (Centraleuropæisk normaltid)","2021","2","18","14","28","43","mk97","24","male","left","50","50","70","6","0","","","","","test","happy","fear","h","true"
"null","<div style=""font-size:60px;"">+</div>","null","html-keyboard-response","43","61749","0.0-9.0-0.17","f9posw","Thu Feb 18 2021 14:28:43 GMT+0100 (Centraleuropæisk normaltid)","2021","2","18","14","28","43","mk97","24","male","left","50","50","70","6","0","","","","","fixation","","","",""
"509.48999999673106","img/image_stim_f_stroop.png","70","image-keyboard-response","44","62266","0.0-9.0-1.17","f9posw","Thu Feb 18 2021 14:28:43 GMT+0100 (Centraleuropæisk normaltid)","2021","2","18","14","28","43","mk97","24","male","left","50","50","70","6","0","","","","","test","fear","happy","f","true"
"null","<div style=""font-size:60px;"">+</div>","null","html-keyboard-response","45","64278","0.0-9.0-0.18","f9posw","Thu Feb 18 2021 14:28:43 GMT+0100 (Centraleuropæisk normaltid)","2021","2","18","14","28","43","mk97","24","male","left","50","50","70","6","0","","","","","fixation","","","",""
"464.85999997821636","img/image_stim_f.png","70","image-keyboard-response","46","64753","0.0-9.0-1.18","f9posw","Thu Feb 18 2021 14:28:43 GMT+0100 (Centraleuropæisk normaltid)","2021","2","18","14","28","43","mk97","24","male","left","50","50","70","6","0","","","","","test","fear","fear","f","true"
"null","<div style=""font-size:60px;"">+</div>","null","html-keyboard-response","47","65761","0.0-9.0-0.19","f9posw","Thu Feb 18 2021 14:28:43 GMT+0100 (Centraleuropæisk normaltid)","2021","2","18","14","28","43","mk97","24","male","left","50","50","70","6","0","","","","","fixation","","","",""
"662.4500000034459","img/image_stim_h.png","72","image-keyboard-response","48","66432","0.0-9.0-1.19","f9posw","Thu Feb 18 2021 14:28:43 GMT+0100 (Centraleuropæisk normaltid)","2021","2","18","14","28","43","mk97","24","male","left","50","50","70","6","0","","","","","test","happy","happy","h","true"
"null","<div style=""font-size:60px;"">+</div>","null","html-keyboard-response","49","67442","0.0-9.0-0.20","f9posw","Thu Feb 18 2021 14:28:43 GMT+0100 (Centraleuropæisk normaltid)","2021","2","18","14","28","43","mk97","24","male","left","50","50","70","6","0","","","","","fixation","","","",""
"527.6449999946635","img/image_stim_f.png","70","image-keyboard-response","50","67976","0.0-9.0-1.20","f9posw","Thu Feb 18 2021 14:28:43 GMT+0100 (Centraleuropæisk normaltid)","2021","2","18","14","28","43","mk97","24","male","left","50","50","70","6","0","","","","","test","fear","fear","f","true"
"null","<div style=""font-size:60px;"">+</div>","null","html-keyboard-response","51","68989","0.0-9.0-0.21","f9posw","Thu Feb 18 2021 14:28:43 GMT+0100 (Centraleuropæisk normaltid)","2021","2","18","14","28","43","mk97","24","male","left","50","50","70","6","0","","","","","fixation","","","",""
"501.98500000988133","img/image_stim_h.png","72","image-keyboard-response","52","69495","0.0-9.0-1.21","f9posw","Thu Feb 18 2021 14:28:43 GMT+0100 (Centraleuropæisk normaltid)","2021","2","18","14","28","43","mk97","24","male","left","50","50","70","6","0","","","","","test","happy","happy","h","true"
"null","<div style=""font-size:60px;"">+</div>","null","html-keyboard-response","53","71256","0.0-9.0-0.22","f9posw","Thu Feb 18 2021 14:28:43 GMT+0100 (Centraleuropæisk normaltid)","2021","2","18","14","28","43","mk97","24","male","left","50","50","70","6","0","","","","","fixation","","","",""
"538.4199999971315","img/image_stim_f_stroop.png","70","image-keyboard-response","54","71801","0.0-9.0-1.22","f9posw","Thu Feb 18 2021 14:28:43 GMT+0100 (Centraleuropæisk normaltid)","2021","2","18","14","28","43","mk97","24","male","left","50","50","70","6","0","","","","","test","fear","happy","f","true"
"null","<div style=""font-size:60px;"">+</div>","null","html-keyboard-response","55","72564","0.0-9.0-0.23","f9posw","Thu Feb 18 2021 14:28:43 GMT+0100 (Centraleuropæisk normaltid)","2021","2","18","14","28","43","mk97","24","male","left","50","50","70","6","0","","","","","fixation","","","",""
"555.3049999871291","img/image_stim_h_stroop.png","72","image-keyboard-response","56","73126","0.0-9.0-1.23","f9posw","Thu Feb 18 2021 14:28:43 GMT+0100 (Centraleuropæisk normaltid)","2021","2","18","14","28","43","mk97","24","male","left","50","50","70","6","0","","","","","test","happy","fear","h","true"
"null","<div style=""font-size:60px;"">+</div>","null","html-keyboard-response","57","73638","0.0-9.0-0.24","f9posw","Thu Feb 18 2021 14:28:43 GMT+0100 (Centraleuropæisk normaltid)","2021","2","18","14","28","43","mk97","24","male","left","50","50","70","6","0","","","","","fixation","","","",""
"541.8449999997392","img/image_stim_f.png","70","image-keyboard-response","58","74187","0.0-9.0-1.24","f9posw","Thu Feb 18 2021 14:28:43 GMT+0100 (Centraleuropæisk normaltid)","2021","2","18","14","28","43","mk97","24","male","left","50","50","70","6","0","","","","","test","fear","fear","f","true"
"null","<div style=""font-size:60px;"">+</div>","null","html-keyboard-response","59","74949","0.0-9.0-0.25","f9posw","Thu Feb 18 2021 14:28:43 GMT+0100 (Centraleuropæisk normaltid)","2021","2","18","14","28","43","mk97","24","male","left","50","50","70","6","0","","","","","fixation","","","",""
"569.1949999891222","img/image_stim_h_stroop.png","72","image-keyboard-response","60","75526","0.0-9.0-1.25","f9posw","Thu Feb 18 2021 14:28:43 GMT+0100 (Centraleuropæisk normaltid)","2021","2","18","14","28","43","mk97","24","male","left","50","50","70","6","0","","","","","test","happy","fear","h","true"
"null","<div style=""font-size:60px;"">+</div>","null","html-keyboard-response","61","76789","0.0-9.0-0.26","f9posw","Thu Feb 18 2021 14:28:43 GMT+0100 (Centraleuropæisk normaltid)","2021","2","18","14","28","43","mk97","24","male","left","50","50","70","6","0","","","","","fixation","","","",""
"551.6099999949802","img/image_stim_h.png","72","image-keyboard-response","62","77349","0.0-9.0-1.26","f9posw","Thu Feb 18 2021 14:28:43 GMT+0100 (Centraleuropæisk normaltid)","2021","2","18","14","28","43","mk97","24","male","left","50","50","70","6","0","","","","","test","happy","happy","h","true"
"null","<div style=""font-size:60px;"">+</div>","null","html-keyboard-response","63","77863","0.0-9.0-0.27","f9posw","Thu Feb 18 2021 14:28:43 GMT+0100 (Centraleuropæisk normaltid)","2021","2","18","14","28","43","mk97","24","male","left","50","50","70","6","0","","","","","fixation","","","",""
"752.600000007078","img/image_stim_f_stroop.png","70","image-keyboard-response","64","78622","0.0-9.0-1.27","f9posw","Thu Feb 18 2021 14:28:43 GMT+0100 (Centraleuropæisk normaltid)","2021","2","18","14","28","43","mk97","24","male","left","50","50","70","6","0","","","","","test","fear","happy","f","true"
"null","<div style=""font-size:60px;"">+</div>","null","html-keyboard-response","65","79634","0.0-9.0-0.28","f9posw","Thu Feb 18 2021 14:28:43 GMT+0100 (Centraleuropæisk normaltid)","2021","2","18","14","28","43","mk97","24","male","left","50","50","70","6","0","","","","","fixation","","","",""
"380.87500000256114","img/image_stim_f.png","70","image-keyboard-response","66","80022","0.0-9.0-1.28","f9posw","Thu Feb 18 2021 14:28:43 GMT+0100 (Centraleuropæisk normaltid)","2021","2","18","14","28","43","mk97","24","male","left","50","50","70","6","0","","","","","test","fear","fear","f","true"
"null","<div style=""font-size:60px;"">+</div>","null","html-keyboard-response","67","81033","0.0-9.0-0.29","f9posw","Thu Feb 18 2021 14:28:43 GMT+0100 (Centraleuropæisk normaltid)","2021","2","18","14","28","43","mk97","24","male","left","50","50","70","6","0","","","","","fixation","","","",""
"588.4899999946356","img/image_stim_h_stroop.png","72","image-keyboard-response","68","81633","0.0-9.0-1.29","f9posw","Thu Feb 18 2021 14:28:43 GMT+0100 (Centraleuropæisk normaltid)","2021","2","18","14","28","43","mk97","24","male","left","50","50","70","6","0","","","","","test","happy","fear","h","true"
"null","<div style=""font-size:60px;"">+</div>","null","html-keyboard-response","69","82647","0.0-9.0-0.30","f9posw","Thu Feb 18 2021 14:28:43 GMT+0100 (Centraleuropæisk normaltid)","2021","2","18","14","28","43","mk97","24","male","left","50","50","70","6","0","","","","","fixation","","","",""
"545.2550000045449","img/image_stim_h.png","72","image-keyboard-response","70","83197","0.0-9.0-1.30","f9posw","Thu Feb 18 2021 14:28:43 GMT+0100 (Centraleuropæisk normaltid)","2021","2","18","14","28","43","mk97","24","male","left","50","50","70","6","0","","","","","test","happy","happy","h","true"
"null","<div style=""font-size:60px;"">+</div>","null","html-keyboard-response","71","83465","0.0-9.0-0.31","f9posw","Thu Feb 18 2021 14:28:43 GMT+0100 (Centraleuropæisk normaltid)","2021","2","18","14","28","43","mk97","24","male","left","50","50","70","6","0","","","","","fixation","","","",""
"519.4550000014715","img/image_stim_f_stroop.png","70","image-keyboard-response","72","83988","0.0-9.0-1.31","f9posw","Thu Feb 18 2021 14:28:43 GMT+0100 (Centraleuropæisk normaltid)","2021","2","18","14","28","43","mk97","24","male","left","50","50","70","6","0","","","","","test","fear","happy","f","true"
"null","<div style=""font-size:60px;"">+</div>","null","html-keyboard-response","73","86000","0.0-9.0-0.32","f9posw","Thu Feb 18 2021 14:28:43 GMT+0100 (Centraleuropæisk normaltid)","2021","2","18","14","28","43","mk97","24","male","left","50","50","70","6","0","","","","","fixation","","","",""
"596.7300000193063","img/image_stim_f_stroop.png","70","image-keyboard-response","74","86601","0.0-9.0-1.32","f9posw","Thu Feb 18 2021 14:28:43 GMT+0100 (Centraleuropæisk normaltid)","2021","2","18","14","28","43","mk97","24","male","left","50","50","70","6","0","","","","","test","fear","happy","f","true"
"null","<div style=""font-size:60px;"">+</div>","null","html-keyboard-response","75","86864","0.0-9.0-0.33","f9posw","Thu Feb 18 2021 14:28:43 GMT+0100 (Centraleuropæisk normaltid)","2021","2","18","14","28","43","mk97","24","male","left","50","50","70","6","0","","","","","fixation","","","",""
"660.3349999932107","img/image_stim_f.png","70","image-keyboard-response","76","87531","0.0-9.0-1.33","f9posw","Thu Feb 18 2021 14:28:43 GMT+0100 (Centraleuropæisk normaltid)","2021","2","18","14","28","43","mk97","24","male","left","50","50","70","6","0","","","","","test","fear","fear","f","true"
"null","<div style=""font-size:60px;"">+</div>","null","html-keyboard-response","77","87806","0.0-9.0-0.34","f9posw","Thu Feb 18 2021 14:28:43 GMT+0100 (Centraleuropæisk normaltid)","2021","2","18","14","28","43","mk97","24","male","left","50","50","70","6","0","","","","","fixation","","","",""
"598.4900000039488","img/image_stim_h_stroop.png","72","image-keyboard-response","78","88411","0.0-9.0-1.34","f9posw","Thu Feb 18 2021 14:28:43 GMT+0100 (Centraleuropæisk normaltid)","2021","2","18","14","28","43","mk97","24","male","left","50","50","70","6","0","","","","","test","happy","fear","h","true"
"null","<div style=""font-size:60px;"">+</div>","null","html-keyboard-response","79","90423","0.0-9.0-0.35","f9posw","Thu Feb 18 2021 14:28:43 GMT+0100 (Centraleuropæisk normaltid)","2021","2","18","14","28","43","mk97","24","male","left","50","50","70","6","0","","","","","fixation","","","",""
"465.83500000997446","img/image_stim_h.png","72","image-keyboard-response","80","90894","0.0-9.0-1.35","f9posw","Thu Feb 18 2021 14:28:43 GMT+0100 (Centraleuropæisk normaltid)","2021","2","18","14","28","43","mk97","24","male","left","50","50","70","6","0","","","","","test","happy","happy","h","true"
