"rt","stimulus","key_press","trial_type","trial_index","time_elapsed","internal_node_id","exp_id","Time","year","month","date","hour","minute","seconds","id","age","Gender","Handedness","mood","fresh","hunger","H_since_Sleep","H_since_Eat","responses","question_order","slider_start","response","test_part","face","word","correct_response","correct"
"4756.715000024997","<p>Welcome to this experiment on daily rhythms and cognition.</p><p>First you will be asked some questions about yourself.</p><p>Then a short experiment will measure your response time.</p><p>Take the test at different times of the day/night.</p><p>The test is anonymous, but comparing your data across time is important.</p><p>Therefore, please make up and remember a personal ID (two letters+ two numbers).</p><p>Use this ID whenever taking the test.</p><p><strong>Press any key to begin.</strong></p>","32","html-keyboard-response","0","4760","0.0-0.0","a0gh2p","Thu Feb 18 2021 07:39:51 GMT+0100 (Central European Standard Time)","2021","2","18","7","39","51","nn96","24","male","left","40","24","44","0","12","","","","","","","","",""
"4780.764999915846","","","survey-text","1","9547","0.0-1.0","a0gh2p","Thu Feb 18 2021 07:39:51 GMT+0100 (Central European Standard Time)","2021","2","18","7","39","51","nn96","24","male","left","40","24","44","0","12","{""Q0"":""nn96""}","","","","","","","",""
"3414.64500001166","","","survey-text","2","12964","0.0-2.0","a0gh2p","Thu Feb 18 2021 07:39:51 GMT+0100 (Central European Standard Time)","2021","2","18","7","39","51","nn96","24","male","left","40","24","44","0","12","{""Q0"":""24""}","","","","","","","",""
"3791.8749999953434","","","survey-multi-select","3","16760","0.0-3.0","a0gh2p","Thu Feb 18 2021 07:39:51 GMT+0100 (Central European Standard Time)","2021","2","18","7","39","51","nn96","24","male","left","40","24","44","0","12","{""Gender"":[""male""],""Hand"":[""left""]}","[0,1]","","","","","","",""
"6138.819999992847","<p>How Sad/Angry or Happy are you right now?</p>","","html-slider-response","4","22901","0.0-4.0","a0gh2p","Thu Feb 18 2021 07:39:51 GMT+0100 (Central European Standard Time)","2021","2","18","7","39","51","nn96","24","male","left","40","24","44","0","12","","","50","40","","","","",""
"4965.7850000076","<p>How Tired/Sleepy/Distracted or Fresh/Awake/Alert are you right now?</p>","","html-slider-response","5","27868","0.0-5.0","a0gh2p","Thu Feb 18 2021 07:39:51 GMT+0100 (Central European Standard Time)","2021","2","18","7","39","51","nn96","24","male","left","40","24","44","0","12","","","50","24","","","","",""
"4305.264999973588","<p>How Hungry or Satiated are you right now?</p>","","html-slider-response","6","32175","0.0-6.0","a0gh2p","Thu Feb 18 2021 07:39:51 GMT+0100 (Central European Standard Time)","2021","2","18","7","39","51","nn96","24","male","left","40","24","44","0","12","","","50","44","","","","",""
"23313.309999997728","","","survey-multi-select","7","55506","0.0-7.0","a0gh2p","Thu Feb 18 2021 07:39:51 GMT+0100 (Central European Standard Time)","2021","2","18","7","39","51","nn96","24","male","left","40","24","44","0","12","{""Sleep"":[""0""],""Eat"":[""12""]}","[0,1]","","","","","","",""
"6064.435000065714","<p>In this experiment, a face and a word will appear in the center of the screen.</p><p>If the face is <strong>happy</strong>, press the letter <strong>H</strong> with <strong>right</strong> index finger.</p><p>If the face is <strong>fearful</strong>, press the letter <strong>F</strong> with <strong>left</strong> index finger.</p><p><strong>Ignore the written words</strong>. Respond as fast as possible while being correct. </p><div style='width: 900px;'><div style='float: left;'><img src='img/stimuli_stroop_happy.png'></img><p class='small'><strong>Press the H key for happy faces</strong></p></div><div class='float: right;'><img src='img/stimuli_stroop_fear.png'></img><p class='small'><strong>Press the F key for faces with fear</strong></p></div></div><p>If the screen turns blank, press <strong>SPACE</strong></p><p><strong>Press any key to begin.</strong></p>","32","html-keyboard-response","8","61572","0.0-8.0","a0gh2p","Thu Feb 18 2021 07:39:51 GMT+0100 (Central European Standard Time)","2021","2","18","7","39","51","nn96","24","male","left","40","24","44","0","12","","","","","","","","",""
"null","<div style=""font-size:60px;"">+</div>","null","html-keyboard-response","9","65076","0.0-9.0-0.0","a0gh2p","Thu Feb 18 2021 07:39:51 GMT+0100 (Central European Standard Time)","2021","2","18","7","39","51","nn96","24","male","left","40","24","44","0","12","","","","","fixation","","","",""
"691.5049999952316","img/image_stim_h.png","72","image-keyboard-response","10","65780","0.0-9.0-1.0","a0gh2p","Thu Feb 18 2021 07:39:51 GMT+0100 (Central European Standard Time)","2021","2","18","7","39","51","nn96","24","male","left","40","24","44","0","12","","","","","test","happy","happy","h","true"
"null","<div style=""font-size:60px;"">+</div>","null","html-keyboard-response","11","67046","0.0-9.0-0.1","a0gh2p","Thu Feb 18 2021 07:39:51 GMT+0100 (Central European Standard Time)","2021","2","18","7","39","51","nn96","24","male","left","40","24","44","0","12","","","","","fixation","","","",""
"484.0550000080839","img/image_stim_f.png","70","image-keyboard-response","12","67532","0.0-9.0-1.1","a0gh2p","Thu Feb 18 2021 07:39:51 GMT+0100 (Central European Standard Time)","2021","2","18","7","39","51","nn96","24","male","left","40","24","44","0","12","","","","","test","fear","fear","f","true"
"null","<div style=""font-size:60px;"">+</div>","null","html-keyboard-response","13","67784","0.0-9.0-0.2","a0gh2p","Thu Feb 18 2021 07:39:51 GMT+0100 (Central European Standard Time)","2021","2","18","7","39","51","nn96","24","male","left","40","24","44","0","12","","","","","fixation","","","",""
"545.7900000037625","img/image_stim_h_stroop.png","72","image-keyboard-response","14","68332","0.0-9.0-1.2","a0gh2p","Thu Feb 18 2021 07:39:51 GMT+0100 (Central European Standard Time)","2021","2","18","7","39","51","nn96","24","male","left","40","24","44","0","12","","","","","test","happy","fear","h","true"
"null","<div style=""font-size:60px;"">+</div>","null","html-keyboard-response","15","70086","0.0-9.0-0.3","a0gh2p","Thu Feb 18 2021 07:39:51 GMT+0100 (Central European Standard Time)","2021","2","18","7","39","51","nn96","24","male","left","40","24","44","0","12","","","","","fixation","","","",""
"484.5349999377504","img/image_stim_f_stroop.png","70","image-keyboard-response","16","70572","0.0-9.0-1.3","a0gh2p","Thu Feb 18 2021 07:39:51 GMT+0100 (Central European Standard Time)","2021","2","18","7","39","51","nn96","24","male","left","40","24","44","0","12","","","","","test","fear","happy","f","true"
"null","<div style=""font-size:60px;"">+</div>","null","html-keyboard-response","17","71575","0.0-9.0-0.4","a0gh2p","Thu Feb 18 2021 07:39:51 GMT+0100 (Central European Standard Time)","2021","2","18","7","39","51","nn96","24","male","left","40","24","44","0","12","","","","","fixation","","","",""
"635.7050000224262","img/image_stim_h_stroop.png","72","image-keyboard-response","18","72212","0.0-9.0-1.4","a0gh2p","Thu Feb 18 2021 07:39:51 GMT+0100 (Central European Standard Time)","2021","2","18","7","39","51","nn96","24","male","left","40","24","44","0","12","","","","","test","happy","fear","h","true"
"null","<div style=""font-size:60px;"">+</div>","null","html-keyboard-response","19","73718","0.0-9.0-0.5","a0gh2p","Thu Feb 18 2021 07:39:51 GMT+0100 (Central European Standard Time)","2021","2","18","7","39","51","nn96","24","male","left","40","24","44","0","12","","","","","fixation","","","",""
"460.6200000271201","img/image_stim_f_stroop.png","70","image-keyboard-response","20","74180","0.0-9.0-1.5","a0gh2p","Thu Feb 18 2021 07:39:51 GMT+0100 (Central European Standard Time)","2021","2","18","7","39","51","nn96","24","male","left","40","24","44","0","12","","","","","test","fear","happy","f","true"
"null","<div style=""font-size:60px;"">+</div>","null","html-keyboard-response","21","75684","0.0-9.0-0.6","a0gh2p","Thu Feb 18 2021 07:39:51 GMT+0100 (Central European Standard Time)","2021","2","18","7","39","51","nn96","24","male","left","40","24","44","0","12","","","","","fixation","","","",""
"624.9799999641255","img/image_stim_f.png","70","image-keyboard-response","22","76311","0.0-9.0-1.6","a0gh2p","Thu Feb 18 2021 07:39:51 GMT+0100 (Central European Standard Time)","2021","2","18","7","39","51","nn96","24","male","left","40","24","44","0","12","","","","","test","fear","fear","f","true"
"null","<div style=""font-size:60px;"">+</div>","null","html-keyboard-response","23","77817","0.0-9.0-0.7","a0gh2p","Thu Feb 18 2021 07:39:51 GMT+0100 (Central European Standard Time)","2021","2","18","7","39","51","nn96","24","male","left","40","24","44","0","12","","","","","fixation","","","",""
"417.11499996017665","img/image_stim_h.png","72","image-keyboard-response","24","78236","0.0-9.0-1.7","a0gh2p","Thu Feb 18 2021 07:39:51 GMT+0100 (Central European Standard Time)","2021","2","18","7","39","51","nn96","24","male","left","40","24","44","0","12","","","","","test","happy","happy","h","true"
"null","<div style=""font-size:60px;"">+</div>","null","html-keyboard-response","25","79242","0.0-9.0-0.8","a0gh2p","Thu Feb 18 2021 07:39:51 GMT+0100 (Central European Standard Time)","2021","2","18","7","39","51","nn96","24","male","left","40","24","44","0","12","","","","","fixation","","","",""
"528.4150000661612","img/image_stim_f.png","70","image-keyboard-response","26","79772","0.0-9.0-1.8","a0gh2p","Thu Feb 18 2021 07:39:51 GMT+0100 (Central European Standard Time)","2021","2","18","7","39","51","nn96","24","male","left","40","24","44","0","12","","","","","test","fear","fear","f","true"
"null","<div style=""font-size:60px;"">+</div>","null","html-keyboard-response","27","81275","0.0-9.0-0.9","a0gh2p","Thu Feb 18 2021 07:39:51 GMT+0100 (Central European Standard Time)","2021","2","18","7","39","51","nn96","24","male","left","40","24","44","0","12","","","","","fixation","","","",""
"463.11000001151115","img/image_stim_f_stroop.png","72","image-keyboard-response","28","81740","0.0-9.0-1.9","a0gh2p","Thu Feb 18 2021 07:39:51 GMT+0100 (Central European Standard Time)","2021","2","18","7","39","51","nn96","24","male","left","40","24","44","0","12","","","","","test","fear","happy","f","false"
"null","<div style=""font-size:60px;"">+</div>","null","html-keyboard-response","29","82242","0.0-9.0-0.10","a0gh2p","Thu Feb 18 2021 07:39:51 GMT+0100 (Central European Standard Time)","2021","2","18","7","39","51","nn96","24","male","left","40","24","44","0","12","","","","","fixation","","","",""
"802.6850000023842","img/image_stim_h_stroop.png","72","image-keyboard-response","30","83046","0.0-9.0-1.10","a0gh2p","Thu Feb 18 2021 07:39:51 GMT+0100 (Central European Standard Time)","2021","2","18","7","39","51","nn96","24","male","left","40","24","44","0","12","","","","","test","happy","fear","h","true"
"null","<div style=""font-size:60px;"">+</div>","null","html-keyboard-response","31","83550","0.0-9.0-0.11","a0gh2p","Thu Feb 18 2021 07:39:51 GMT+0100 (Central European Standard Time)","2021","2","18","7","39","51","nn96","24","male","left","40","24","44","0","12","","","","","fixation","","","",""
"556.1449999222532","img/image_stim_h.png","72","image-keyboard-response","32","84107","0.0-9.0-1.11","a0gh2p","Thu Feb 18 2021 07:39:51 GMT+0100 (Central European Standard Time)","2021","2","18","7","39","51","nn96","24","male","left","40","24","44","0","12","","","","","test","happy","happy","h","true"
"null","<div style=""font-size:60px;"">+</div>","null","html-keyboard-response","33","85611","0.0-9.0-0.12","a0gh2p","Thu Feb 18 2021 07:39:51 GMT+0100 (Central European Standard Time)","2021","2","18","7","39","51","nn96","24","male","left","40","24","44","0","12","","","","","fixation","","","",""
"382.80999998096377","img/image_stim_f.png","70","image-keyboard-response","34","85995","0.0-9.0-1.12","a0gh2p","Thu Feb 18 2021 07:39:51 GMT+0100 (Central European Standard Time)","2021","2","18","7","39","51","nn96","24","male","left","40","24","44","0","12","","","","","test","fear","fear","f","true"
"null","<div style=""font-size:60px;"">+</div>","null","html-keyboard-response","35","87000","0.0-9.0-0.13","a0gh2p","Thu Feb 18 2021 07:39:51 GMT+0100 (Central European Standard Time)","2021","2","18","7","39","51","nn96","24","male","left","40","24","44","0","12","","","","","fixation","","","",""
"506.2049999833107","img/image_stim_h_stroop.png","72","image-keyboard-response","36","87508","0.0-9.0-1.13","a0gh2p","Thu Feb 18 2021 07:39:51 GMT+0100 (Central European Standard Time)","2021","2","18","7","39","51","nn96","24","male","left","40","24","44","0","12","","","","","test","happy","fear","h","true"
"null","<div style=""font-size:60px;"">+</div>","null","html-keyboard-response","37","89515","0.0-9.0-0.14","a0gh2p","Thu Feb 18 2021 07:39:51 GMT+0100 (Central European Standard Time)","2021","2","18","7","39","51","nn96","24","male","left","40","24","44","0","12","","","","","fixation","","","",""
"457.75999990291893","img/image_stim_h.png","72","image-keyboard-response","38","89974","0.0-9.0-1.14","a0gh2p","Thu Feb 18 2021 07:39:51 GMT+0100 (Central European Standard Time)","2021","2","18","7","39","51","nn96","24","male","left","40","24","44","0","12","","","","","test","happy","happy","h","true"
"null","<div style=""font-size:60px;"">+</div>","null","html-keyboard-response","39","90977","0.0-9.0-0.15","a0gh2p","Thu Feb 18 2021 07:39:51 GMT+0100 (Central European Standard Time)","2021","2","18","7","39","51","nn96","24","male","left","40","24","44","0","12","","","","","fixation","","","",""
"464.91999994032085","img/image_stim_f_stroop.png","70","image-keyboard-response","40","91443","0.0-9.0-1.15","a0gh2p","Thu Feb 18 2021 07:39:51 GMT+0100 (Central European Standard Time)","2021","2","18","7","39","51","nn96","24","male","left","40","24","44","0","12","","","","","test","fear","happy","f","true"
"null","<div style=""font-size:60px;"">+</div>","null","html-keyboard-response","41","92948","0.0-9.0-0.16","a0gh2p","Thu Feb 18 2021 07:39:51 GMT+0100 (Central European Standard Time)","2021","2","18","7","39","51","nn96","24","male","left","40","24","44","0","12","","","","","fixation","","","",""
"528.4499999834225","img/image_stim_f_stroop.png","70","image-keyboard-response","42","93478","0.0-9.0-1.16","a0gh2p","Thu Feb 18 2021 07:39:51 GMT+0100 (Central European Standard Time)","2021","2","18","7","39","51","nn96","24","male","left","40","24","44","0","12","","","","","test","fear","happy","f","true"
"null","<div style=""font-size:60px;"">+</div>","null","html-keyboard-response","43","93980","0.0-9.0-0.17","a0gh2p","Thu Feb 18 2021 07:39:51 GMT+0100 (Central European Standard Time)","2021","2","18","7","39","51","nn96","24","male","left","40","24","44","0","12","","","","","fixation","","","",""
"517.4100000876933","img/image_stim_h.png","72","image-keyboard-response","44","94499","0.0-9.0-1.17","a0gh2p","Thu Feb 18 2021 07:39:51 GMT+0100 (Central European Standard Time)","2021","2","18","7","39","51","nn96","24","male","left","40","24","44","0","12","","","","","test","happy","happy","h","true"
"null","<div style=""font-size:60px;"">+</div>","null","html-keyboard-response","45","94755","0.0-9.0-0.18","a0gh2p","Thu Feb 18 2021 07:39:51 GMT+0100 (Central European Standard Time)","2021","2","18","7","39","51","nn96","24","male","left","40","24","44","0","12","","","","","fixation","","","",""
"534.8849999718368","img/image_stim_f.png","70","image-keyboard-response","46","95291","0.0-9.0-1.18","a0gh2p","Thu Feb 18 2021 07:39:51 GMT+0100 (Central European Standard Time)","2021","2","18","7","39","51","nn96","24","male","left","40","24","44","0","12","","","","","test","fear","fear","f","true"
"null","<div style=""font-size:60px;"">+</div>","null","html-keyboard-response","47","97296","0.0-9.0-0.19","a0gh2p","Thu Feb 18 2021 07:39:51 GMT+0100 (Central European Standard Time)","2021","2","18","7","39","51","nn96","24","male","left","40","24","44","0","12","","","","","fixation","","","",""
"482.39500005729496","img/image_stim_h_stroop.png","72","image-keyboard-response","48","97779","0.0-9.0-1.19","a0gh2p","Thu Feb 18 2021 07:39:51 GMT+0100 (Central European Standard Time)","2021","2","18","7","39","51","nn96","24","male","left","40","24","44","0","12","","","","","test","happy","fear","h","true"
"null","<div style=""font-size:60px;"">+</div>","null","html-keyboard-response","49","98033","0.0-9.0-0.20","a0gh2p","Thu Feb 18 2021 07:39:51 GMT+0100 (Central European Standard Time)","2021","2","18","7","39","51","nn96","24","male","left","40","24","44","0","12","","","","","fixation","","","",""
"616.5449999971315","img/image_stim_f_stroop.png","70","image-keyboard-response","50","98651","0.0-9.0-1.20","a0gh2p","Thu Feb 18 2021 07:39:51 GMT+0100 (Central European Standard Time)","2021","2","18","7","39","51","nn96","24","male","left","40","24","44","0","12","","","","","test","fear","happy","f","true"
"null","<div style=""font-size:60px;"">+</div>","null","html-keyboard-response","51","100154","0.0-9.0-0.21","a0gh2p","Thu Feb 18 2021 07:39:51 GMT+0100 (Central European Standard Time)","2021","2","18","7","39","51","nn96","24","male","left","40","24","44","0","12","","","","","fixation","","","",""
"385.41999994777143","img/image_stim_f.png","70","image-keyboard-response","52","100542","0.0-9.0-1.21","a0gh2p","Thu Feb 18 2021 07:39:51 GMT+0100 (Central European Standard Time)","2021","2","18","7","39","51","nn96","24","male","left","40","24","44","0","12","","","","","test","fear","fear","f","true"
"null","<div style=""font-size:60px;"">+</div>","null","html-keyboard-response","53","101545","0.0-9.0-0.22","a0gh2p","Thu Feb 18 2021 07:39:51 GMT+0100 (Central European Standard Time)","2021","2","18","7","39","51","nn96","24","male","left","40","24","44","0","12","","","","","fixation","","","",""
"448.5550000099465","img/image_stim_h_stroop.png","72","image-keyboard-response","54","101995","0.0-9.0-1.22","a0gh2p","Thu Feb 18 2021 07:39:51 GMT+0100 (Central European Standard Time)","2021","2","18","7","39","51","nn96","24","male","left","40","24","44","0","12","","","","","test","happy","fear","h","true"
"null","<div style=""font-size:60px;"">+</div>","null","html-keyboard-response","55","102748","0.0-9.0-0.23","a0gh2p","Thu Feb 18 2021 07:39:51 GMT+0100 (Central European Standard Time)","2021","2","18","7","39","51","nn96","24","male","left","40","24","44","0","12","","","","","fixation","","","",""
"432.399999932386","img/image_stim_h.png","72","image-keyboard-response","56","103182","0.0-9.0-1.23","a0gh2p","Thu Feb 18 2021 07:39:51 GMT+0100 (Central European Standard Time)","2021","2","18","7","39","51","nn96","24","male","left","40","24","44","0","12","","","","","test","happy","happy","h","true"
"null","<div style=""font-size:60px;"">+</div>","null","html-keyboard-response","57","103685","0.0-9.0-0.24","a0gh2p","Thu Feb 18 2021 07:39:51 GMT+0100 (Central European Standard Time)","2021","2","18","7","39","51","nn96","24","male","left","40","24","44","0","12","","","","","fixation","","","",""
"460.0149999605492","img/image_stim_h.png","72","image-keyboard-response","58","104147","0.0-9.0-1.24","a0gh2p","Thu Feb 18 2021 07:39:51 GMT+0100 (Central European Standard Time)","2021","2","18","7","39","51","nn96","24","male","left","40","24","44","0","12","","","","","test","happy","happy","h","true"
"null","<div style=""font-size:60px;"">+</div>","null","html-keyboard-response","59","104403","0.0-9.0-0.25","a0gh2p","Thu Feb 18 2021 07:39:51 GMT+0100 (Central European Standard Time)","2021","2","18","7","39","51","nn96","24","male","left","40","24","44","0","12","","","","","fixation","","","",""
"615.0249999482185","img/image_stim_f_stroop.png","70","image-keyboard-response","60","105019","0.0-9.0-1.25","a0gh2p","Thu Feb 18 2021 07:39:51 GMT+0100 (Central European Standard Time)","2021","2","18","7","39","51","nn96","24","male","left","40","24","44","0","12","","","","","test","fear","happy","f","true"
"null","<div style=""font-size:60px;"">+</div>","null","html-keyboard-response","61","106772","0.0-9.0-0.26","a0gh2p","Thu Feb 18 2021 07:39:51 GMT+0100 (Central European Standard Time)","2021","2","18","7","39","51","nn96","24","male","left","40","24","44","0","12","","","","","fixation","","","",""
"447.7099999785423","img/image_stim_f.png","70","image-keyboard-response","62","107221","0.0-9.0-1.26","a0gh2p","Thu Feb 18 2021 07:39:51 GMT+0100 (Central European Standard Time)","2021","2","18","7","39","51","nn96","24","male","left","40","24","44","0","12","","","","","test","fear","fear","f","true"
"null","<div style=""font-size:60px;"">+</div>","null","html-keyboard-response","63","108979","0.0-9.0-0.27","a0gh2p","Thu Feb 18 2021 07:39:51 GMT+0100 (Central European Standard Time)","2021","2","18","7","39","51","nn96","24","male","left","40","24","44","0","12","","","","","fixation","","","",""
"478.3549999119714","img/image_stim_h_stroop.png","70","image-keyboard-response","64","109459","0.0-9.0-1.27","a0gh2p","Thu Feb 18 2021 07:39:51 GMT+0100 (Central European Standard Time)","2021","2","18","7","39","51","nn96","24","male","left","40","24","44","0","12","","","","","test","happy","fear","h","false"
"null","<div style=""font-size:60px;"">+</div>","null","html-keyboard-response","65","111462","0.0-9.0-0.28","a0gh2p","Thu Feb 18 2021 07:39:51 GMT+0100 (Central European Standard Time)","2021","2","18","7","39","51","nn96","24","male","left","40","24","44","0","12","","","","","fixation","","","",""
"518.2449999265373","img/image_stim_f_stroop.png","70","image-keyboard-response","66","111981","0.0-9.0-1.28","a0gh2p","Thu Feb 18 2021 07:39:51 GMT+0100 (Central European Standard Time)","2021","2","18","7","39","51","nn96","24","male","left","40","24","44","0","12","","","","","test","fear","happy","f","true"
"null","<div style=""font-size:60px;"">+</div>","null","html-keyboard-response","67","113739","0.0-9.0-0.29","a0gh2p","Thu Feb 18 2021 07:39:51 GMT+0100 (Central European Standard Time)","2021","2","18","7","39","51","nn96","24","male","left","40","24","44","0","12","","","","","fixation","","","",""
"413.9300000388175","img/image_stim_f.png","70","image-keyboard-response","68","114155","0.0-9.0-1.29","a0gh2p","Thu Feb 18 2021 07:39:51 GMT+0100 (Central European Standard Time)","2021","2","18","7","39","51","nn96","24","male","left","40","24","44","0","12","","","","","test","fear","fear","f","true"
"null","<div style=""font-size:60px;"">+</div>","null","html-keyboard-response","69","115164","0.0-9.0-0.30","a0gh2p","Thu Feb 18 2021 07:39:51 GMT+0100 (Central European Standard Time)","2021","2","18","7","39","51","nn96","24","male","left","40","24","44","0","12","","","","","fixation","","","",""
"437.0049999561161","img/image_stim_h.png","72","image-keyboard-response","70","115603","0.0-9.0-1.30","a0gh2p","Thu Feb 18 2021 07:39:51 GMT+0100 (Central European Standard Time)","2021","2","18","7","39","51","nn96","24","male","left","40","24","44","0","12","","","","","test","happy","happy","h","true"
"null","<div style=""font-size:60px;"">+</div>","null","html-keyboard-response","71","117358","0.0-9.0-0.31","a0gh2p","Thu Feb 18 2021 07:39:51 GMT+0100 (Central European Standard Time)","2021","2","18","7","39","51","nn96","24","male","left","40","24","44","0","12","","","","","fixation","","","",""
"437.0549999875948","img/image_stim_h_stroop.png","72","image-keyboard-response","72","117797","0.0-9.0-1.31","a0gh2p","Thu Feb 18 2021 07:39:51 GMT+0100 (Central European Standard Time)","2021","2","18","7","39","51","nn96","24","male","left","40","24","44","0","12","","","","","test","happy","fear","h","true"
"null","<div style=""font-size:60px;"">+</div>","null","html-keyboard-response","73","119555","0.0-9.0-0.32","a0gh2p","Thu Feb 18 2021 07:39:51 GMT+0100 (Central European Standard Time)","2021","2","18","7","39","51","nn96","24","male","left","40","24","44","0","12","","","","","fixation","","","",""
"462.790000019595","img/image_stim_h.png","72","image-keyboard-response","74","120019","0.0-9.0-1.32","a0gh2p","Thu Feb 18 2021 07:39:51 GMT+0100 (Central European Standard Time)","2021","2","18","7","39","51","nn96","24","male","left","40","24","44","0","12","","","","","test","happy","happy","h","true"
"null","<div style=""font-size:60px;"">+</div>","null","html-keyboard-response","75","120523","0.0-9.0-0.33","a0gh2p","Thu Feb 18 2021 07:39:51 GMT+0100 (Central European Standard Time)","2021","2","18","7","39","51","nn96","24","male","left","40","24","44","0","12","","","","","fixation","","","",""
"630.1100000273436","img/image_stim_f.png","70","image-keyboard-response","76","121154","0.0-9.0-1.33","a0gh2p","Thu Feb 18 2021 07:39:51 GMT+0100 (Central European Standard Time)","2021","2","18","7","39","51","nn96","24","male","left","40","24","44","0","12","","","","","test","fear","fear","f","true"
"null","<div style=""font-size:60px;"">+</div>","null","html-keyboard-response","77","123159","0.0-9.0-0.34","a0gh2p","Thu Feb 18 2021 07:39:51 GMT+0100 (Central European Standard Time)","2021","2","18","7","39","51","nn96","24","male","left","40","24","44","0","12","","","","","fixation","","","",""
"403.95000006537884","img/image_stim_f_stroop.png","70","image-keyboard-response","78","123564","0.0-9.0-1.34","a0gh2p","Thu Feb 18 2021 07:39:51 GMT+0100 (Central European Standard Time)","2021","2","18","7","39","51","nn96","24","male","left","40","24","44","0","12","","","","","test","fear","happy","f","true"
"null","<div style=""font-size:60px;"">+</div>","null","html-keyboard-response","79","124568","0.0-9.0-0.35","a0gh2p","Thu Feb 18 2021 07:39:51 GMT+0100 (Central European Standard Time)","2021","2","18","7","39","51","nn96","24","male","left","40","24","44","0","12","","","","","fixation","","","",""
"544.5349999936298","img/image_stim_h_stroop.png","72","image-keyboard-response","80","125114","0.0-9.0-1.35","a0gh2p","Thu Feb 18 2021 07:39:51 GMT+0100 (Central European Standard Time)","2021","2","18","7","39","51","nn96","24","male","left","40","24","44","0","12","","","","","test","happy","fear","h","true"
