"rt","stimulus","key_press","trial_type","trial_index","time_elapsed","internal_node_id","exp_id","Time","year","month","date","hour","minute","seconds","id","age","Gender","Handedness","mood","fresh","hunger","H_since_Sleep","H_since_Eat","responses","question_order","slider_start","response","test_part","face","word","correct_response","correct"
"420352.2349999985","<p>Welcome to this experiment on daily rhythms and cognition.</p><p>First you will be asked some questions about yourself.</p><p>Then a short experiment will measure your response time.</p><p>Take the test at different times of the day/night.</p><p>The test is anonymous, but comparing your data across time is important.</p><p>Therefore, please make up and remember a personal ID (two letters+ two numbers).</p><p>Use this ID whenever taking the test.</p><p><strong>Press any key to begin.</strong></p>","32","html-keyboard-response","0","420357","0.0-0.0","ok7hcf","Mon Feb 08 2021 14:31:56 GMT+0100 (Centraleuropæisk normaltid)","2021","2","8","14","31","56","lwp1234","22","female","right","90","73","96","8","1","","","","","","","","",""
"479958.3050000365","","","survey-text","1","900321","0.0-1.0","ok7hcf","Mon Feb 08 2021 14:31:56 GMT+0100 (Centraleuropæisk normaltid)","2021","2","8","14","31","56","lwp1234","22","female","right","90","73","96","8","1","{""Q0"":""lwp1234""}","","","","","","","",""
"3455.39000001736","","","survey-text","2","903779","0.0-2.0","ok7hcf","Mon Feb 08 2021 14:31:56 GMT+0100 (Centraleuropæisk normaltid)","2021","2","8","14","31","56","lwp1234","22","female","right","90","73","96","8","1","{""Q0"":""22""}","","","","","","","",""
"4248.474999971222","","","survey-multi-select","3","908030","0.0-3.0","ok7hcf","Mon Feb 08 2021 14:31:56 GMT+0100 (Centraleuropæisk normaltid)","2021","2","8","14","31","56","lwp1234","22","female","right","90","73","96","8","1","{""Gender"":[""female""],""Hand"":[""right""]}","[0,1]","","","","","","",""
"5958.444999996573","<p>How Sad/Angry or Happy are you right now?</p>","","html-slider-response","4","913990","0.0-4.0","ok7hcf","Mon Feb 08 2021 14:31:56 GMT+0100 (Centraleuropæisk normaltid)","2021","2","8","14","31","56","lwp1234","22","female","right","90","73","96","8","1","","","50","90","","","","",""
"6698.414999991655","<p>How Tired/Sleepy/Distracted or Fresh/Awake/Alert are you right now?</p>","","html-slider-response","5","920689","0.0-5.0","ok7hcf","Mon Feb 08 2021 14:31:56 GMT+0100 (Centraleuropæisk normaltid)","2021","2","8","14","31","56","lwp1234","22","female","right","90","73","96","8","1","","","50","73","","","","",""
"31096.189999952912","<p>How Hungry or Satiated are you right now?</p>","","html-slider-response","6","951787","0.0-6.0","ok7hcf","Mon Feb 08 2021 14:31:56 GMT+0100 (Centraleuropæisk normaltid)","2021","2","8","14","31","56","lwp1234","22","female","right","90","73","96","8","1","","","50","96","","","","",""
"10516.044999996666","","","survey-multi-select","7","962317","0.0-7.0","ok7hcf","Mon Feb 08 2021 14:31:56 GMT+0100 (Centraleuropæisk normaltid)","2021","2","8","14","31","56","lwp1234","22","female","right","90","73","96","8","1","{""Sleep"":[""8""],""Eat"":[""1""]}","[0,1]","","","","","","",""
"69964.38999997918","<p>In this experiment, a face and a word will appear in the center of the screen.</p><p>If the face is <strong>happy</strong>, press the letter <strong>H</strong> with <strong>right</strong> index finger.</p><p>If the face is <strong>fearful</strong>, press the letter <strong>F</strong> with <strong>left</strong> index finger.</p><p><strong>Ignore the written words</strong>. Respond as fast as possible while being correct. </p><div style='width: 900px;'><div style='float: left;'><img src='img/stimuli_stroop_happy.png'></img><p class='small'><strong>Press the H key for happy faces</strong></p></div><div class='float: right;'><img src='img/stimuli_stroop_fear.png'></img><p class='small'><strong>Press the F key for faces with fear</strong></p></div></div><p>If the screen turns blank, press <strong>SPACE</strong></p><p><strong>Press any key to begin.</strong></p>","32","html-keyboard-response","8","1032283","0.0-8.0","ok7hcf","Mon Feb 08 2021 14:31:56 GMT+0100 (Centraleuropæisk normaltid)","2021","2","8","14","31","56","lwp1234","22","female","right","90","73","96","8","1","","","","","","","","",""
"null","<div style=""font-size:60px;"">+</div>","null","html-keyboard-response","9","1034790","0.0-9.0-0.0","ok7hcf","Mon Feb 08 2021 14:31:56 GMT+0100 (Centraleuropæisk normaltid)","2021","2","8","14","31","56","lwp1234","22","female","right","90","73","96","8","1","","","","","fixation","","","",""
"null","img/image_stim_h_stroop.png","null","image-keyboard-response","10","1039795","0.0-9.0-1.0","ok7hcf","Mon Feb 08 2021 14:31:56 GMT+0100 (Centraleuropæisk normaltid)","2021","2","8","14","31","56","lwp1234","22","female","right","90","73","96","8","1","","","","","test","happy","fear","h","false"
"null","<div style=""font-size:60px;"">+</div>","null","html-keyboard-response","11","1041050","0.0-9.0-0.1","ok7hcf","Mon Feb 08 2021 14:31:56 GMT+0100 (Centraleuropæisk normaltid)","2021","2","8","14","31","56","lwp1234","22","female","right","90","73","96","8","1","","","","","fixation","","","",""
"null","img/image_stim_f_stroop.png","null","image-keyboard-response","12","1046054","0.0-9.0-1.1","ok7hcf","Mon Feb 08 2021 14:31:56 GMT+0100 (Centraleuropæisk normaltid)","2021","2","8","14","31","56","lwp1234","22","female","right","90","73","96","8","1","","","","","test","fear","happy","f","false"
"null","<div style=""font-size:60px;"">+</div>","null","html-keyboard-response","13","1046307","0.0-9.0-0.2","ok7hcf","Mon Feb 08 2021 14:31:56 GMT+0100 (Centraleuropæisk normaltid)","2021","2","8","14","31","56","lwp1234","22","female","right","90","73","96","8","1","","","","","fixation","","","",""
"null","img/image_stim_f.png","null","image-keyboard-response","14","1051310","0.0-9.0-1.2","ok7hcf","Mon Feb 08 2021 14:31:56 GMT+0100 (Centraleuropæisk normaltid)","2021","2","8","14","31","56","lwp1234","22","female","right","90","73","96","8","1","","","","","test","fear","fear","f","false"
"null","<div style=""font-size:60px;"">+</div>","null","html-keyboard-response","15","1051562","0.0-9.0-0.3","ok7hcf","Mon Feb 08 2021 14:31:56 GMT+0100 (Centraleuropæisk normaltid)","2021","2","8","14","31","56","lwp1234","22","female","right","90","73","96","8","1","","","","","fixation","","","",""
"821.8350000097416","img/image_stim_h.png","72","image-keyboard-response","16","1052385","0.0-9.0-1.3","ok7hcf","Mon Feb 08 2021 14:31:56 GMT+0100 (Centraleuropæisk normaltid)","2021","2","8","14","31","56","lwp1234","22","female","right","90","73","96","8","1","","","","","test","happy","happy","h","true"
"null","<div style=""font-size:60px;"">+</div>","null","html-keyboard-response","17","1054140","0.0-9.0-0.4","ok7hcf","Mon Feb 08 2021 14:31:56 GMT+0100 (Centraleuropæisk normaltid)","2021","2","8","14","31","56","lwp1234","22","female","right","90","73","96","8","1","","","","","fixation","","","",""
"1125.934999960009","img/image_stim_f.png","70","image-keyboard-response","18","1055272","0.0-9.0-1.4","ok7hcf","Mon Feb 08 2021 14:31:56 GMT+0100 (Centraleuropæisk normaltid)","2021","2","8","14","31","56","lwp1234","22","female","right","90","73","96","8","1","","","","","test","fear","fear","f","true"
"null","<div style=""font-size:60px;"">+</div>","null","html-keyboard-response","19","1056525","0.0-9.0-0.5","ok7hcf","Mon Feb 08 2021 14:31:56 GMT+0100 (Centraleuropæisk normaltid)","2021","2","8","14","31","56","lwp1234","22","female","right","90","73","96","8","1","","","","","fixation","","","",""
"472.1750000026077","img/image_stim_h_stroop.png","72","image-keyboard-response","20","1056999","0.0-9.0-1.5","ok7hcf","Mon Feb 08 2021 14:31:56 GMT+0100 (Centraleuropæisk normaltid)","2021","2","8","14","31","56","lwp1234","22","female","right","90","73","96","8","1","","","","","test","happy","fear","h","true"
"null","<div style=""font-size:60px;"">+</div>","null","html-keyboard-response","21","1058003","0.0-9.0-0.6","ok7hcf","Mon Feb 08 2021 14:31:56 GMT+0100 (Centraleuropæisk normaltid)","2021","2","8","14","31","56","lwp1234","22","female","right","90","73","96","8","1","","","","","fixation","","","",""
"1592.6050000125542","img/image_stim_f_stroop.png","72","image-keyboard-response","22","1059597","0.0-9.0-1.6","ok7hcf","Mon Feb 08 2021 14:31:56 GMT+0100 (Centraleuropæisk normaltid)","2021","2","8","14","31","56","lwp1234","22","female","right","90","73","96","8","1","","","","","test","fear","happy","f","false"
"null","<div style=""font-size:60px;"">+</div>","null","html-keyboard-response","23","1061605","0.0-9.0-0.7","ok7hcf","Mon Feb 08 2021 14:31:56 GMT+0100 (Centraleuropæisk normaltid)","2021","2","8","14","31","56","lwp1234","22","female","right","90","73","96","8","1","","","","","fixation","","","",""
"889.5550000015646","img/image_stim_h.png","72","image-keyboard-response","24","1062496","0.0-9.0-1.7","ok7hcf","Mon Feb 08 2021 14:31:56 GMT+0100 (Centraleuropæisk normaltid)","2021","2","8","14","31","56","lwp1234","22","female","right","90","73","96","8","1","","","","","test","happy","happy","h","true"
"null","<div style=""font-size:60px;"">+</div>","null","html-keyboard-response","25","1063252","0.0-9.0-0.8","ok7hcf","Mon Feb 08 2021 14:31:56 GMT+0100 (Centraleuropæisk normaltid)","2021","2","8","14","31","56","lwp1234","22","female","right","90","73","96","8","1","","","","","fixation","","","",""
"649.6799999731593","img/image_stim_h.png","72","image-keyboard-response","26","1063903","0.0-9.0-1.8","ok7hcf","Mon Feb 08 2021 14:31:56 GMT+0100 (Centraleuropæisk normaltid)","2021","2","8","14","31","56","lwp1234","22","female","right","90","73","96","8","1","","","","","test","happy","happy","h","true"
"null","<div style=""font-size:60px;"">+</div>","null","html-keyboard-response","27","1064907","0.0-9.0-0.9","ok7hcf","Mon Feb 08 2021 14:31:56 GMT+0100 (Centraleuropæisk normaltid)","2021","2","8","14","31","56","lwp1234","22","female","right","90","73","96","8","1","","","","","fixation","","","",""
"526.8899999791756","img/image_stim_f_stroop.png","70","image-keyboard-response","28","1065435","0.0-9.0-1.9","ok7hcf","Mon Feb 08 2021 14:31:56 GMT+0100 (Centraleuropæisk normaltid)","2021","2","8","14","31","56","lwp1234","22","female","right","90","73","96","8","1","","","","","test","fear","happy","f","true"
"null","<div style=""font-size:60px;"">+</div>","null","html-keyboard-response","29","1067440","0.0-9.0-0.10","ok7hcf","Mon Feb 08 2021 14:31:56 GMT+0100 (Centraleuropæisk normaltid)","2021","2","8","14","31","56","lwp1234","22","female","right","90","73","96","8","1","","","","","fixation","","","",""
"596.2650000001304","img/image_stim_f.png","70","image-keyboard-response","30","1068037","0.0-9.0-1.10","ok7hcf","Mon Feb 08 2021 14:31:56 GMT+0100 (Centraleuropæisk normaltid)","2021","2","8","14","31","56","lwp1234","22","female","right","90","73","96","8","1","","","","","test","fear","fear","f","true"
"null","<div style=""font-size:60px;"">+</div>","null","html-keyboard-response","31","1069540","0.0-9.0-0.11","ok7hcf","Mon Feb 08 2021 14:31:56 GMT+0100 (Centraleuropæisk normaltid)","2021","2","8","14","31","56","lwp1234","22","female","right","90","73","96","8","1","","","","","fixation","","","",""
"703.2749999780208","img/image_stim_h_stroop.png","70","image-keyboard-response","32","1070244","0.0-9.0-1.11","ok7hcf","Mon Feb 08 2021 14:31:56 GMT+0100 (Centraleuropæisk normaltid)","2021","2","8","14","31","56","lwp1234","22","female","right","90","73","96","8","1","","","","","test","happy","fear","h","false"
"null","<div style=""font-size:60px;"">+</div>","null","html-keyboard-response","33","1071251","0.0-9.0-0.12","ok7hcf","Mon Feb 08 2021 14:31:56 GMT+0100 (Centraleuropæisk normaltid)","2021","2","8","14","31","56","lwp1234","22","female","right","90","73","96","8","1","","","","","fixation","","","",""
"1253.560000041034","img/image_stim_h.png","72","image-keyboard-response","34","1072506","0.0-9.0-1.12","ok7hcf","Mon Feb 08 2021 14:31:56 GMT+0100 (Centraleuropæisk normaltid)","2021","2","8","14","31","56","lwp1234","22","female","right","90","73","96","8","1","","","","","test","happy","happy","h","true"
"null","<div style=""font-size:60px;"">+</div>","null","html-keyboard-response","35","1073261","0.0-9.0-0.13","ok7hcf","Mon Feb 08 2021 14:31:56 GMT+0100 (Centraleuropæisk normaltid)","2021","2","8","14","31","56","lwp1234","22","female","right","90","73","96","8","1","","","","","fixation","","","",""
"615.300000004936","img/image_stim_f.png","70","image-keyboard-response","36","1073877","0.0-9.0-1.13","ok7hcf","Mon Feb 08 2021 14:31:56 GMT+0100 (Centraleuropæisk normaltid)","2021","2","8","14","31","56","lwp1234","22","female","right","90","73","96","8","1","","","","","test","fear","fear","f","true"
"null","<div style=""font-size:60px;"">+</div>","null","html-keyboard-response","37","1075134","0.0-9.0-0.14","ok7hcf","Mon Feb 08 2021 14:31:56 GMT+0100 (Centraleuropæisk normaltid)","2021","2","8","14","31","56","lwp1234","22","female","right","90","73","96","8","1","","","","","fixation","","","",""
"1431.4550000126474","img/image_stim_f_stroop.png","70","image-keyboard-response","38","1076567","0.0-9.0-1.14","ok7hcf","Mon Feb 08 2021 14:31:56 GMT+0100 (Centraleuropæisk normaltid)","2021","2","8","14","31","56","lwp1234","22","female","right","90","73","96","8","1","","","","","test","fear","happy","f","true"
"null","<div style=""font-size:60px;"">+</div>","null","html-keyboard-response","39","1077323","0.0-9.0-0.15","ok7hcf","Mon Feb 08 2021 14:31:56 GMT+0100 (Centraleuropæisk normaltid)","2021","2","8","14","31","56","lwp1234","22","female","right","90","73","96","8","1","","","","","fixation","","","",""
"714.6799999754876","img/image_stim_h_stroop.png","72","image-keyboard-response","40","1078039","0.0-9.0-1.15","ok7hcf","Mon Feb 08 2021 14:31:56 GMT+0100 (Centraleuropæisk normaltid)","2021","2","8","14","31","56","lwp1234","22","female","right","90","73","96","8","1","","","","","test","happy","fear","h","true"
"null","<div style=""font-size:60px;"">+</div>","null","html-keyboard-response","41","1078542","0.0-9.0-0.16","ok7hcf","Mon Feb 08 2021 14:31:56 GMT+0100 (Centraleuropæisk normaltid)","2021","2","8","14","31","56","lwp1234","22","female","right","90","73","96","8","1","","","","","fixation","","","",""
"925.3400000161491","img/image_stim_h.png","72","image-keyboard-response","42","1079468","0.0-9.0-1.16","ok7hcf","Mon Feb 08 2021 14:31:56 GMT+0100 (Centraleuropæisk normaltid)","2021","2","8","14","31","56","lwp1234","22","female","right","90","73","96","8","1","","","","","test","happy","happy","h","true"
"null","<div style=""font-size:60px;"">+</div>","null","html-keyboard-response","43","1081473","0.0-9.0-0.17","ok7hcf","Mon Feb 08 2021 14:31:56 GMT+0100 (Centraleuropæisk normaltid)","2021","2","8","14","31","56","lwp1234","22","female","right","90","73","96","8","1","","","","","fixation","","","",""
"1289.1950000193901","img/image_stim_f_stroop.png","70","image-keyboard-response","44","1082764","0.0-9.0-1.17","ok7hcf","Mon Feb 08 2021 14:31:56 GMT+0100 (Centraleuropæisk normaltid)","2021","2","8","14","31","56","lwp1234","22","female","right","90","73","96","8","1","","","","","test","fear","happy","f","true"
"null","<div style=""font-size:60px;"">+</div>","null","html-keyboard-response","45","1084022","0.0-9.0-0.18","ok7hcf","Mon Feb 08 2021 14:31:56 GMT+0100 (Centraleuropæisk normaltid)","2021","2","8","14","31","56","lwp1234","22","female","right","90","73","96","8","1","","","","","fixation","","","",""
"639.3500000122003","img/image_stim_f.png","70","image-keyboard-response","46","1084662","0.0-9.0-1.18","ok7hcf","Mon Feb 08 2021 14:31:56 GMT+0100 (Centraleuropæisk normaltid)","2021","2","8","14","31","56","lwp1234","22","female","right","90","73","96","8","1","","","","","test","fear","fear","f","true"
"null","<div style=""font-size:60px;"">+</div>","null","html-keyboard-response","47","1085667","0.0-9.0-0.19","ok7hcf","Mon Feb 08 2021 14:31:56 GMT+0100 (Centraleuropæisk normaltid)","2021","2","8","14","31","56","lwp1234","22","female","right","90","73","96","8","1","","","","","fixation","","","",""
"777.6849999791011","img/image_stim_h_stroop.png","72","image-keyboard-response","48","1086446","0.0-9.0-1.19","ok7hcf","Mon Feb 08 2021 14:31:56 GMT+0100 (Centraleuropæisk normaltid)","2021","2","8","14","31","56","lwp1234","22","female","right","90","73","96","8","1","","","","","test","happy","fear","h","true"
"null","<div style=""font-size:60px;"">+</div>","null","html-keyboard-response","49","1087952","0.0-9.0-0.20","ok7hcf","Mon Feb 08 2021 14:31:56 GMT+0100 (Centraleuropæisk normaltid)","2021","2","8","14","31","56","lwp1234","22","female","right","90","73","96","8","1","","","","","fixation","","","",""
"1141.2250000284985","img/image_stim_h_stroop.png","72","image-keyboard-response","50","1089095","0.0-9.0-1.20","ok7hcf","Mon Feb 08 2021 14:31:56 GMT+0100 (Centraleuropæisk normaltid)","2021","2","8","14","31","56","lwp1234","22","female","right","90","73","96","8","1","","","","","test","happy","fear","h","true"
"null","<div style=""font-size:60px;"">+</div>","null","html-keyboard-response","51","1090100","0.0-9.0-0.21","ok7hcf","Mon Feb 08 2021 14:31:56 GMT+0100 (Centraleuropæisk normaltid)","2021","2","8","14","31","56","lwp1234","22","female","right","90","73","96","8","1","","","","","fixation","","","",""
"677.2950000013225","img/image_stim_f_stroop.png","70","image-keyboard-response","52","1090778","0.0-9.0-1.21","ok7hcf","Mon Feb 08 2021 14:31:56 GMT+0100 (Centraleuropæisk normaltid)","2021","2","8","14","31","56","lwp1234","22","female","right","90","73","96","8","1","","","","","test","fear","happy","f","true"
"null","<div style=""font-size:60px;"">+</div>","null","html-keyboard-response","53","1091536","0.0-9.0-0.22","ok7hcf","Mon Feb 08 2021 14:31:56 GMT+0100 (Centraleuropæisk normaltid)","2021","2","8","14","31","56","lwp1234","22","female","right","90","73","96","8","1","","","","","fixation","","","",""
"773.9500000025146","img/image_stim_h.png","72","image-keyboard-response","54","1092311","0.0-9.0-1.22","ok7hcf","Mon Feb 08 2021 14:31:56 GMT+0100 (Centraleuropæisk normaltid)","2021","2","8","14","31","56","lwp1234","22","female","right","90","73","96","8","1","","","","","test","happy","happy","h","true"
"null","<div style=""font-size:60px;"">+</div>","null","html-keyboard-response","55","1093068","0.0-9.0-0.23","ok7hcf","Mon Feb 08 2021 14:31:56 GMT+0100 (Centraleuropæisk normaltid)","2021","2","8","14","31","56","lwp1234","22","female","right","90","73","96","8","1","","","","","fixation","","","",""
"612.7599999890663","img/image_stim_f.png","70","image-keyboard-response","56","1093682","0.0-9.0-1.23","ok7hcf","Mon Feb 08 2021 14:31:56 GMT+0100 (Centraleuropæisk normaltid)","2021","2","8","14","31","56","lwp1234","22","female","right","90","73","96","8","1","","","","","test","fear","fear","f","true"
"null","<div style=""font-size:60px;"">+</div>","null","html-keyboard-response","57","1094186","0.0-9.0-0.24","ok7hcf","Mon Feb 08 2021 14:31:56 GMT+0100 (Centraleuropæisk normaltid)","2021","2","8","14","31","56","lwp1234","22","female","right","90","73","96","8","1","","","","","fixation","","","",""
"823.3849999960512","img/image_stim_f_stroop.png","72","image-keyboard-response","58","1095010","0.0-9.0-1.24","ok7hcf","Mon Feb 08 2021 14:31:56 GMT+0100 (Centraleuropæisk normaltid)","2021","2","8","14","31","56","lwp1234","22","female","right","90","73","96","8","1","","","","","test","fear","happy","f","false"
"null","<div style=""font-size:60px;"">+</div>","null","html-keyboard-response","59","1095266","0.0-9.0-0.25","ok7hcf","Mon Feb 08 2021 14:31:56 GMT+0100 (Centraleuropæisk normaltid)","2021","2","8","14","31","56","lwp1234","22","female","right","90","73","96","8","1","","","","","fixation","","","",""
"1033.7299999664538","img/image_stim_h.png","72","image-keyboard-response","60","1096301","0.0-9.0-1.25","ok7hcf","Mon Feb 08 2021 14:31:56 GMT+0100 (Centraleuropæisk normaltid)","2021","2","8","14","31","56","lwp1234","22","female","right","90","73","96","8","1","","","","","test","happy","happy","h","true"
"null","<div style=""font-size:60px;"">+</div>","null","html-keyboard-response","61","1097807","0.0-9.0-0.26","ok7hcf","Mon Feb 08 2021 14:31:56 GMT+0100 (Centraleuropæisk normaltid)","2021","2","8","14","31","56","lwp1234","22","female","right","90","73","96","8","1","","","","","fixation","","","",""
"937.0950000011362","img/image_stim_f.png","70","image-keyboard-response","62","1098745","0.0-9.0-1.26","ok7hcf","Mon Feb 08 2021 14:31:56 GMT+0100 (Centraleuropæisk normaltid)","2021","2","8","14","31","56","lwp1234","22","female","right","90","73","96","8","1","","","","","test","fear","fear","f","true"
"null","<div style=""font-size:60px;"">+</div>","null","html-keyboard-response","63","1099751","0.0-9.0-0.27","ok7hcf","Mon Feb 08 2021 14:31:56 GMT+0100 (Centraleuropæisk normaltid)","2021","2","8","14","31","56","lwp1234","22","female","right","90","73","96","8","1","","","","","fixation","","","",""
"1068.8850000151433","img/image_stim_h_stroop.png","72","image-keyboard-response","64","1100821","0.0-9.0-1.27","ok7hcf","Mon Feb 08 2021 14:31:56 GMT+0100 (Centraleuropæisk normaltid)","2021","2","8","14","31","56","lwp1234","22","female","right","90","73","96","8","1","","","","","test","happy","fear","h","true"
"null","<div style=""font-size:60px;"">+</div>","null","html-keyboard-response","65","1101324","0.0-9.0-0.28","ok7hcf","Mon Feb 08 2021 14:31:56 GMT+0100 (Centraleuropæisk normaltid)","2021","2","8","14","31","56","lwp1234","22","female","right","90","73","96","8","1","","","","","fixation","","","",""
"572.1550000016578","img/image_stim_h.png","72","image-keyboard-response","66","1101897","0.0-9.0-1.28","ok7hcf","Mon Feb 08 2021 14:31:56 GMT+0100 (Centraleuropæisk normaltid)","2021","2","8","14","31","56","lwp1234","22","female","right","90","73","96","8","1","","","","","test","happy","happy","h","true"
"null","<div style=""font-size:60px;"">+</div>","null","html-keyboard-response","67","1103405","0.0-9.0-0.29","ok7hcf","Mon Feb 08 2021 14:31:56 GMT+0100 (Centraleuropæisk normaltid)","2021","2","8","14","31","56","lwp1234","22","female","right","90","73","96","8","1","","","","","fixation","","","",""
"374.7250000014901","img/image_stim_f.png","70","image-keyboard-response","68","1103781","0.0-9.0-1.29","ok7hcf","Mon Feb 08 2021 14:31:56 GMT+0100 (Centraleuropæisk normaltid)","2021","2","8","14","31","56","lwp1234","22","female","right","90","73","96","8","1","","","","","test","fear","fear","f","true"
"null","<div style=""font-size:60px;"">+</div>","null","html-keyboard-response","69","1105040","0.0-9.0-0.30","ok7hcf","Mon Feb 08 2021 14:31:56 GMT+0100 (Centraleuropæisk normaltid)","2021","2","8","14","31","56","lwp1234","22","female","right","90","73","96","8","1","","","","","fixation","","","",""
"444.3899999605492","img/image_stim_h_stroop.png","72","image-keyboard-response","70","1105486","0.0-9.0-1.30","ok7hcf","Mon Feb 08 2021 14:31:56 GMT+0100 (Centraleuropæisk normaltid)","2021","2","8","14","31","56","lwp1234","22","female","right","90","73","96","8","1","","","","","test","happy","fear","h","true"
"null","<div style=""font-size:60px;"">+</div>","null","html-keyboard-response","71","1106992","0.0-9.0-0.31","ok7hcf","Mon Feb 08 2021 14:31:56 GMT+0100 (Centraleuropæisk normaltid)","2021","2","8","14","31","56","lwp1234","22","female","right","90","73","96","8","1","","","","","fixation","","","",""
"591.3949999958277","img/image_stim_f_stroop.png","70","image-keyboard-response","72","1107585","0.0-9.0-1.31","ok7hcf","Mon Feb 08 2021 14:31:56 GMT+0100 (Centraleuropæisk normaltid)","2021","2","8","14","31","56","lwp1234","22","female","right","90","73","96","8","1","","","","","test","fear","happy","f","true"
"null","<div style=""font-size:60px;"">+</div>","null","html-keyboard-response","73","1108090","0.0-9.0-0.32","ok7hcf","Mon Feb 08 2021 14:31:56 GMT+0100 (Centraleuropæisk normaltid)","2021","2","8","14","31","56","lwp1234","22","female","right","90","73","96","8","1","","","","","fixation","","","",""
"766.3450000109151","img/image_stim_f.png","70","image-keyboard-response","74","1108858","0.0-9.0-1.32","ok7hcf","Mon Feb 08 2021 14:31:56 GMT+0100 (Centraleuropæisk normaltid)","2021","2","8","14","31","56","lwp1234","22","female","right","90","73","96","8","1","","","","","test","fear","fear","f","true"
"null","<div style=""font-size:60px;"">+</div>","null","html-keyboard-response","75","1110361","0.0-9.0-0.33","ok7hcf","Mon Feb 08 2021 14:31:56 GMT+0100 (Centraleuropæisk normaltid)","2021","2","8","14","31","56","lwp1234","22","female","right","90","73","96","8","1","","","","","fixation","","","",""
"632.4950000271201","img/image_stim_h.png","72","image-keyboard-response","76","1110994","0.0-9.0-1.33","ok7hcf","Mon Feb 08 2021 14:31:56 GMT+0100 (Centraleuropæisk normaltid)","2021","2","8","14","31","56","lwp1234","22","female","right","90","73","96","8","1","","","","","test","happy","happy","h","true"
"null","<div style=""font-size:60px;"">+</div>","null","html-keyboard-response","77","1112000","0.0-9.0-0.34","ok7hcf","Mon Feb 08 2021 14:31:56 GMT+0100 (Centraleuropæisk normaltid)","2021","2","8","14","31","56","lwp1234","22","female","right","90","73","96","8","1","","","","","fixation","","","",""
"935.7249999884516","img/image_stim_f_stroop.png","70","image-keyboard-response","78","1112937","0.0-9.0-1.34","ok7hcf","Mon Feb 08 2021 14:31:56 GMT+0100 (Centraleuropæisk normaltid)","2021","2","8","14","31","56","lwp1234","22","female","right","90","73","96","8","1","","","","","test","fear","happy","f","true"
"null","<div style=""font-size:60px;"">+</div>","null","html-keyboard-response","79","1113690","0.0-9.0-0.35","ok7hcf","Mon Feb 08 2021 14:31:56 GMT+0100 (Centraleuropæisk normaltid)","2021","2","8","14","31","56","lwp1234","22","female","right","90","73","96","8","1","","","","","fixation","","","",""
"553.1949999858625","img/image_stim_h_stroop.png","72","image-keyboard-response","80","1114245","0.0-9.0-1.35","ok7hcf","Mon Feb 08 2021 14:31:56 GMT+0100 (Centraleuropæisk normaltid)","2021","2","8","14","31","56","lwp1234","22","female","right","90","73","96","8","1","","","","","test","happy","fear","h","true"
