"rt","stimulus","key_press","trial_type","trial_index","time_elapsed","internal_node_id","exp_id","Time","year","month","date","hour","minute","seconds","id","age","Gender","Handedness","mood","fresh","hunger","H_since_Sleep","H_since_Eat","responses","question_order","slider_start","response","test_part","face","word","correct_response","correct"
"1414.9449999968056","<p>Welcome to this experiment on daily rhythms and cognition.</p><p>First you will be asked some questions about yourself.</p><p>Then a short experiment will measure your response time.</p><p>Take the test at different times of the day/night.</p><p>The test is anonymous, but comparing your data across time is important.</p><p>Therefore, please make up and remember a personal ID (two letters+ two numbers).</p><p>Use this ID whenever taking the test.</p><p><strong>Press any key to begin.</strong></p>","32","html-keyboard-response","0","1419","0.0-0.0","en4jp9","Sat Feb 13 2021 17:33:23 GMT+0100 (Centraleuropæisk normaltid)","2021","2","13","17","33","23","uc11","21","male","right","41","27","90","9","1","","","","","","","","",""
"6451.820000016596","","","survey-text","1","7878","0.0-1.0","en4jp9","Sat Feb 13 2021 17:33:23 GMT+0100 (Centraleuropæisk normaltid)","2021","2","13","17","33","23","uc11","21","male","right","41","27","90","9","1","{""Q0"":""uc11""}","","","","","","","",""
"10468.934999982594","","","survey-text","2","18350","0.0-2.0","en4jp9","Sat Feb 13 2021 17:33:23 GMT+0100 (Centraleuropæisk normaltid)","2021","2","13","17","33","23","uc11","21","male","right","41","27","90","9","1","{""Q0"":""21""}","","","","","","","",""
"3419.9099999968894","","","survey-multi-select","3","21773","0.0-3.0","en4jp9","Sat Feb 13 2021 17:33:23 GMT+0100 (Centraleuropæisk normaltid)","2021","2","13","17","33","23","uc11","21","male","right","41","27","90","9","1","{""Gender"":[""male""],""Hand"":[""right""]}","[0,1]","","","","","","",""
"17271.20499999728","<p>How Sad/Angry or Happy are you right now?</p>","","html-slider-response","4","39048","0.0-4.0","en4jp9","Sat Feb 13 2021 17:33:23 GMT+0100 (Centraleuropæisk normaltid)","2021","2","13","17","33","23","uc11","21","male","right","41","27","90","9","1","","","50","41","","","","",""
"24267.584999994142","<p>How Tired/Sleepy/Distracted or Fresh/Awake/Alert are you right now?</p>","","html-slider-response","5","63316","0.0-5.0","en4jp9","Sat Feb 13 2021 17:33:23 GMT+0100 (Centraleuropæisk normaltid)","2021","2","13","17","33","23","uc11","21","male","right","41","27","90","9","1","","","50","27","","","","",""
"13136.425000004238","<p>How Hungry or Satiated are you right now?</p>","","html-slider-response","6","76454","0.0-6.0","en4jp9","Sat Feb 13 2021 17:33:23 GMT+0100 (Centraleuropæisk normaltid)","2021","2","13","17","33","23","uc11","21","male","right","41","27","90","9","1","","","50","90","","","","",""
"44742.10000000312","","","survey-multi-select","7","121209","0.0-7.0","en4jp9","Sat Feb 13 2021 17:33:23 GMT+0100 (Centraleuropæisk normaltid)","2021","2","13","17","33","23","uc11","21","male","right","41","27","90","9","1","{""Sleep"":[""9""],""Eat"":[""1""]}","[0,1]","","","","","","",""
"5011.759999993956","<p>In this experiment, a face and a word will appear in the center of the screen.</p><p>If the face is <strong>happy</strong>, press the letter <strong>H</strong> with <strong>right</strong> index finger.</p><p>If the face is <strong>fearful</strong>, press the letter <strong>F</strong> with <strong>left</strong> index finger.</p><p><strong>Ignore the written words</strong>. Respond as fast as possible while being correct. </p><div style='width: 900px;'><div style='float: left;'><img src='img/stimuli_stroop_happy.png'></img><p class='small'><strong>Press the H key for happy faces</strong></p></div><div class='float: right;'><img src='img/stimuli_stroop_fear.png'></img><p class='small'><strong>Press the F key for faces with fear</strong></p></div></div><p>If the screen turns blank, press <strong>SPACE</strong></p><p><strong>Press any key to begin.</strong></p>","32","html-keyboard-response","8","126222","0.0-8.0","en4jp9","Sat Feb 13 2021 17:33:23 GMT+0100 (Centraleuropæisk normaltid)","2021","2","13","17","33","23","uc11","21","male","right","41","27","90","9","1","","","","","","","","",""
"null","<div style=""font-size:60px;"">+</div>","null","html-keyboard-response","9","128725","0.0-9.0-0.0","en4jp9","Sat Feb 13 2021 17:33:23 GMT+0100 (Centraleuropæisk normaltid)","2021","2","13","17","33","23","uc11","21","male","right","41","27","90","9","1","","","","","fixation","","","",""
"543.1350000144448","img/image_stim_h_stroop.png","70","image-keyboard-response","10","129300","0.0-9.0-1.0","en4jp9","Sat Feb 13 2021 17:33:23 GMT+0100 (Centraleuropæisk normaltid)","2021","2","13","17","33","23","uc11","21","male","right","41","27","90","9","1","","","","","test","happy","fear","h","false"
"null","<div style=""font-size:60px;"">+</div>","null","html-keyboard-response","11","130560","0.0-9.0-0.1","en4jp9","Sat Feb 13 2021 17:33:23 GMT+0100 (Centraleuropæisk normaltid)","2021","2","13","17","33","23","uc11","21","male","right","41","27","90","9","1","","","","","fixation","","","",""
"584.9549999984447","img/image_stim_f.png","70","image-keyboard-response","12","131148","0.0-9.0-1.1","en4jp9","Sat Feb 13 2021 17:33:23 GMT+0100 (Centraleuropæisk normaltid)","2021","2","13","17","33","23","uc11","21","male","right","41","27","90","9","1","","","","","test","fear","fear","f","true"
"null","<div style=""font-size:60px;"">+</div>","null","html-keyboard-response","13","132404","0.0-9.0-0.2","en4jp9","Sat Feb 13 2021 17:33:23 GMT+0100 (Centraleuropæisk normaltid)","2021","2","13","17","33","23","uc11","21","male","right","41","27","90","9","1","","","","","fixation","","","",""
"508.23499998659827","img/image_stim_h.png","72","image-keyboard-response","14","132915","0.0-9.0-1.2","en4jp9","Sat Feb 13 2021 17:33:23 GMT+0100 (Centraleuropæisk normaltid)","2021","2","13","17","33","23","uc11","21","male","right","41","27","90","9","1","","","","","test","happy","happy","h","true"
"null","<div style=""font-size:60px;"">+</div>","null","html-keyboard-response","15","133170","0.0-9.0-0.3","en4jp9","Sat Feb 13 2021 17:33:23 GMT+0100 (Centraleuropæisk normaltid)","2021","2","13","17","33","23","uc11","21","male","right","41","27","90","9","1","","","","","fixation","","","",""
"515.1699999987613","img/image_stim_f_stroop.png","70","image-keyboard-response","16","133688","0.0-9.0-1.3","en4jp9","Sat Feb 13 2021 17:33:23 GMT+0100 (Centraleuropæisk normaltid)","2021","2","13","17","33","23","uc11","21","male","right","41","27","90","9","1","","","","","test","fear","happy","f","true"
"null","<div style=""font-size:60px;"">+</div>","null","html-keyboard-response","17","134195","0.0-9.0-0.4","en4jp9","Sat Feb 13 2021 17:33:23 GMT+0100 (Centraleuropæisk normaltid)","2021","2","13","17","33","23","uc11","21","male","right","41","27","90","9","1","","","","","fixation","","","",""
"480.71499998332","img/image_stim_f.png","70","image-keyboard-response","18","134679","0.0-9.0-1.4","en4jp9","Sat Feb 13 2021 17:33:23 GMT+0100 (Centraleuropæisk normaltid)","2021","2","13","17","33","23","uc11","21","male","right","41","27","90","9","1","","","","","test","fear","fear","f","true"
"null","<div style=""font-size:60px;"">+</div>","null","html-keyboard-response","19","136184","0.0-9.0-0.5","en4jp9","Sat Feb 13 2021 17:33:23 GMT+0100 (Centraleuropæisk normaltid)","2021","2","13","17","33","23","uc11","21","male","right","41","27","90","9","1","","","","","fixation","","","",""
"525.9099999966566","img/image_stim_h.png","72","image-keyboard-response","20","136712","0.0-9.0-1.5","en4jp9","Sat Feb 13 2021 17:33:23 GMT+0100 (Centraleuropæisk normaltid)","2021","2","13","17","33","23","uc11","21","male","right","41","27","90","9","1","","","","","test","happy","happy","h","true"
"null","<div style=""font-size:60px;"">+</div>","null","html-keyboard-response","21","137219","0.0-9.0-0.6","en4jp9","Sat Feb 13 2021 17:33:23 GMT+0100 (Centraleuropæisk normaltid)","2021","2","13","17","33","23","uc11","21","male","right","41","27","90","9","1","","","","","fixation","","","",""
"531.3000000023749","img/image_stim_f_stroop.png","70","image-keyboard-response","22","137752","0.0-9.0-1.6","en4jp9","Sat Feb 13 2021 17:33:23 GMT+0100 (Centraleuropæisk normaltid)","2021","2","13","17","33","23","uc11","21","male","right","41","27","90","9","1","","","","","test","fear","happy","f","true"
"null","<div style=""font-size:60px;"">+</div>","null","html-keyboard-response","23","138765","0.0-9.0-0.7","en4jp9","Sat Feb 13 2021 17:33:23 GMT+0100 (Centraleuropæisk normaltid)","2021","2","13","17","33","23","uc11","21","male","right","41","27","90","9","1","","","","","fixation","","","",""
"517.9899999930058","img/image_stim_h_stroop.png","72","image-keyboard-response","24","139285","0.0-9.0-1.7","en4jp9","Sat Feb 13 2021 17:33:23 GMT+0100 (Centraleuropæisk normaltid)","2021","2","13","17","33","23","uc11","21","male","right","41","27","90","9","1","","","","","test","happy","fear","h","true"
"null","<div style=""font-size:60px;"">+</div>","null","html-keyboard-response","25","140041","0.0-9.0-0.8","en4jp9","Sat Feb 13 2021 17:33:23 GMT+0100 (Centraleuropæisk normaltid)","2021","2","13","17","33","23","uc11","21","male","right","41","27","90","9","1","","","","","fixation","","","",""
"494.700000010198","img/image_stim_f.png","70","image-keyboard-response","26","140538","0.0-9.0-1.8","en4jp9","Sat Feb 13 2021 17:33:23 GMT+0100 (Centraleuropæisk normaltid)","2021","2","13","17","33","23","uc11","21","male","right","41","27","90","9","1","","","","","test","fear","fear","f","true"
"null","<div style=""font-size:60px;"">+</div>","null","html-keyboard-response","27","141544","0.0-9.0-0.9","en4jp9","Sat Feb 13 2021 17:33:23 GMT+0100 (Centraleuropæisk normaltid)","2021","2","13","17","33","23","uc11","21","male","right","41","27","90","9","1","","","","","fixation","","","",""
"453.33999997819774","img/image_stim_h.png","72","image-keyboard-response","28","142000","0.0-9.0-1.9","en4jp9","Sat Feb 13 2021 17:33:23 GMT+0100 (Centraleuropæisk normaltid)","2021","2","13","17","33","23","uc11","21","male","right","41","27","90","9","1","","","","","test","happy","happy","h","true"
"null","<div style=""font-size:60px;"">+</div>","null","html-keyboard-response","29","143505","0.0-9.0-0.10","en4jp9","Sat Feb 13 2021 17:33:23 GMT+0100 (Centraleuropæisk normaltid)","2021","2","13","17","33","23","uc11","21","male","right","41","27","90","9","1","","","","","fixation","","","",""
"488.8700000010431","img/image_stim_f_stroop.png","70","image-keyboard-response","30","143997","0.0-9.0-1.10","en4jp9","Sat Feb 13 2021 17:33:23 GMT+0100 (Centraleuropæisk normaltid)","2021","2","13","17","33","23","uc11","21","male","right","41","27","90","9","1","","","","","test","fear","happy","f","true"
"null","<div style=""font-size:60px;"">+</div>","null","html-keyboard-response","31","145753","0.0-9.0-0.11","en4jp9","Sat Feb 13 2021 17:33:23 GMT+0100 (Centraleuropæisk normaltid)","2021","2","13","17","33","23","uc11","21","male","right","41","27","90","9","1","","","","","fixation","","","",""
"499.0899999975227","img/image_stim_h_stroop.png","72","image-keyboard-response","32","146254","0.0-9.0-1.11","en4jp9","Sat Feb 13 2021 17:33:23 GMT+0100 (Centraleuropæisk normaltid)","2021","2","13","17","33","23","uc11","21","male","right","41","27","90","9","1","","","","","test","happy","fear","h","true"
"null","<div style=""font-size:60px;"">+</div>","null","html-keyboard-response","33","148262","0.0-9.0-0.12","en4jp9","Sat Feb 13 2021 17:33:23 GMT+0100 (Centraleuropæisk normaltid)","2021","2","13","17","33","23","uc11","21","male","right","41","27","90","9","1","","","","","fixation","","","",""
"446.24499999918044","img/image_stim_f_stroop.png","70","image-keyboard-response","34","148712","0.0-9.0-1.12","en4jp9","Sat Feb 13 2021 17:33:23 GMT+0100 (Centraleuropæisk normaltid)","2021","2","13","17","33","23","uc11","21","male","right","41","27","90","9","1","","","","","test","fear","happy","f","true"
"null","<div style=""font-size:60px;"">+</div>","null","html-keyboard-response","35","149719","0.0-9.0-0.13","en4jp9","Sat Feb 13 2021 17:33:23 GMT+0100 (Centraleuropæisk normaltid)","2021","2","13","17","33","23","uc11","21","male","right","41","27","90","9","1","","","","","fixation","","","",""
"437.8900000010617","img/image_stim_h.png","72","image-keyboard-response","36","150159","0.0-9.0-1.13","en4jp9","Sat Feb 13 2021 17:33:23 GMT+0100 (Centraleuropæisk normaltid)","2021","2","13","17","33","23","uc11","21","male","right","41","27","90","9","1","","","","","test","happy","happy","h","true"
"null","<div style=""font-size:60px;"">+</div>","null","html-keyboard-response","37","150666","0.0-9.0-0.14","en4jp9","Sat Feb 13 2021 17:33:23 GMT+0100 (Centraleuropæisk normaltid)","2021","2","13","17","33","23","uc11","21","male","right","41","27","90","9","1","","","","","fixation","","","",""
"458.2249999803025","img/image_stim_h_stroop.png","72","image-keyboard-response","38","151127","0.0-9.0-1.14","en4jp9","Sat Feb 13 2021 17:33:23 GMT+0100 (Centraleuropæisk normaltid)","2021","2","13","17","33","23","uc11","21","male","right","41","27","90","9","1","","","","","test","happy","fear","h","true"
"null","<div style=""font-size:60px;"">+</div>","null","html-keyboard-response","39","151384","0.0-9.0-0.15","en4jp9","Sat Feb 13 2021 17:33:23 GMT+0100 (Centraleuropæisk normaltid)","2021","2","13","17","33","23","uc11","21","male","right","41","27","90","9","1","","","","","fixation","","","",""
"445.13999999617226","img/image_stim_f.png","70","image-keyboard-response","40","151832","0.0-9.0-1.15","en4jp9","Sat Feb 13 2021 17:33:23 GMT+0100 (Centraleuropæisk normaltid)","2021","2","13","17","33","23","uc11","21","male","right","41","27","90","9","1","","","","","test","fear","fear","f","true"
"null","<div style=""font-size:60px;"">+</div>","null","html-keyboard-response","41","153088","0.0-9.0-0.16","en4jp9","Sat Feb 13 2021 17:33:23 GMT+0100 (Centraleuropæisk normaltid)","2021","2","13","17","33","23","uc11","21","male","right","41","27","90","9","1","","","","","fixation","","","",""
"519.4199999968987","img/image_stim_h.png","72","image-keyboard-response","42","153610","0.0-9.0-1.16","en4jp9","Sat Feb 13 2021 17:33:23 GMT+0100 (Centraleuropæisk normaltid)","2021","2","13","17","33","23","uc11","21","male","right","41","27","90","9","1","","","","","test","happy","happy","h","true"
"null","<div style=""font-size:60px;"">+</div>","null","html-keyboard-response","43","154368","0.0-9.0-0.17","en4jp9","Sat Feb 13 2021 17:33:23 GMT+0100 (Centraleuropæisk normaltid)","2021","2","13","17","33","23","uc11","21","male","right","41","27","90","9","1","","","","","fixation","","","",""
"520.3900000196882","img/image_stim_f.png","70","image-keyboard-response","44","154889","0.0-9.0-1.17","en4jp9","Sat Feb 13 2021 17:33:23 GMT+0100 (Centraleuropæisk normaltid)","2021","2","13","17","33","23","uc11","21","male","right","41","27","90","9","1","","","","","test","fear","fear","f","true"
"null","<div style=""font-size:60px;"">+</div>","null","html-keyboard-response","45","156644","0.0-9.0-0.18","en4jp9","Sat Feb 13 2021 17:33:23 GMT+0100 (Centraleuropæisk normaltid)","2021","2","13","17","33","23","uc11","21","male","right","41","27","90","9","1","","","","","fixation","","","",""
"481.339999998454","img/image_stim_h_stroop.png","72","image-keyboard-response","46","157128","0.0-9.0-1.18","en4jp9","Sat Feb 13 2021 17:33:23 GMT+0100 (Centraleuropæisk normaltid)","2021","2","13","17","33","23","uc11","21","male","right","41","27","90","9","1","","","","","test","happy","fear","h","true"
"null","<div style=""font-size:60px;"">+</div>","null","html-keyboard-response","47","158386","0.0-9.0-0.19","en4jp9","Sat Feb 13 2021 17:33:23 GMT+0100 (Centraleuropæisk normaltid)","2021","2","13","17","33","23","uc11","21","male","right","41","27","90","9","1","","","","","fixation","","","",""
"544.4100000022445","img/image_stim_f_stroop.png","70","image-keyboard-response","48","158933","0.0-9.0-1.19","en4jp9","Sat Feb 13 2021 17:33:23 GMT+0100 (Centraleuropæisk normaltid)","2021","2","13","17","33","23","uc11","21","male","right","41","27","90","9","1","","","","","test","fear","happy","f","true"
"null","<div style=""font-size:60px;"">+</div>","null","html-keyboard-response","49","159440","0.0-9.0-0.20","en4jp9","Sat Feb 13 2021 17:33:23 GMT+0100 (Centraleuropæisk normaltid)","2021","2","13","17","33","23","uc11","21","male","right","41","27","90","9","1","","","","","fixation","","","",""
"495.005000004312","img/image_stim_h.png","72","image-keyboard-response","50","159938","0.0-9.0-1.20","en4jp9","Sat Feb 13 2021 17:33:23 GMT+0100 (Centraleuropæisk normaltid)","2021","2","13","17","33","23","uc11","21","male","right","41","27","90","9","1","","","","","test","happy","happy","h","true"
"null","<div style=""font-size:60px;"">+</div>","null","html-keyboard-response","51","161446","0.0-9.0-0.21","en4jp9","Sat Feb 13 2021 17:33:23 GMT+0100 (Centraleuropæisk normaltid)","2021","2","13","17","33","23","uc11","21","male","right","41","27","90","9","1","","","","","fixation","","","",""
"505.7150000066031","img/image_stim_f.png","70","image-keyboard-response","52","161955","0.0-9.0-1.21","en4jp9","Sat Feb 13 2021 17:33:23 GMT+0100 (Centraleuropæisk normaltid)","2021","2","13","17","33","23","uc11","21","male","right","41","27","90","9","1","","","","","test","fear","fear","f","true"
"null","<div style=""font-size:60px;"">+</div>","null","html-keyboard-response","53","162214","0.0-9.0-0.22","en4jp9","Sat Feb 13 2021 17:33:23 GMT+0100 (Centraleuropæisk normaltid)","2021","2","13","17","33","23","uc11","21","male","right","41","27","90","9","1","","","","","fixation","","","",""
"501.7750000115484","img/image_stim_h_stroop.png","72","image-keyboard-response","54","162718","0.0-9.0-1.22","en4jp9","Sat Feb 13 2021 17:33:23 GMT+0100 (Centraleuropæisk normaltid)","2021","2","13","17","33","23","uc11","21","male","right","41","27","90","9","1","","","","","test","happy","fear","h","true"
"null","<div style=""font-size:60px;"">+</div>","null","html-keyboard-response","55","164226","0.0-9.0-0.23","en4jp9","Sat Feb 13 2021 17:33:23 GMT+0100 (Centraleuropæisk normaltid)","2021","2","13","17","33","23","uc11","21","male","right","41","27","90","9","1","","","","","fixation","","","",""
"417.55499999271706","img/image_stim_f_stroop.png","70","image-keyboard-response","56","164646","0.0-9.0-1.23","en4jp9","Sat Feb 13 2021 17:33:23 GMT+0100 (Centraleuropæisk normaltid)","2021","2","13","17","33","23","uc11","21","male","right","41","27","90","9","1","","","","","test","fear","happy","f","true"
"null","<div style=""font-size:60px;"">+</div>","null","html-keyboard-response","57","164905","0.0-9.0-0.24","en4jp9","Sat Feb 13 2021 17:33:23 GMT+0100 (Centraleuropæisk normaltid)","2021","2","13","17","33","23","uc11","21","male","right","41","27","90","9","1","","","","","fixation","","","",""
"434.6150000055786","img/image_stim_f_stroop.png","72","image-keyboard-response","58","165342","0.0-9.0-1.24","en4jp9","Sat Feb 13 2021 17:33:23 GMT+0100 (Centraleuropæisk normaltid)","2021","2","13","17","33","23","uc11","21","male","right","41","27","90","9","1","","","","","test","fear","happy","f","false"
"null","<div style=""font-size:60px;"">+</div>","null","html-keyboard-response","59","167352","0.0-9.0-0.25","en4jp9","Sat Feb 13 2021 17:33:23 GMT+0100 (Centraleuropæisk normaltid)","2021","2","13","17","33","23","uc11","21","male","right","41","27","90","9","1","","","","","fixation","","","",""
"522.3249999980908","img/image_stim_f.png","70","image-keyboard-response","60","167877","0.0-9.0-1.25","en4jp9","Sat Feb 13 2021 17:33:23 GMT+0100 (Centraleuropæisk normaltid)","2021","2","13","17","33","23","uc11","21","male","right","41","27","90","9","1","","","","","test","fear","fear","f","true"
"null","<div style=""font-size:60px;"">+</div>","null","html-keyboard-response","61","169386","0.0-9.0-0.26","en4jp9","Sat Feb 13 2021 17:33:23 GMT+0100 (Centraleuropæisk normaltid)","2021","2","13","17","33","23","uc11","21","male","right","41","27","90","9","1","","","","","fixation","","","",""
"535.2399999974295","img/image_stim_h.png","72","image-keyboard-response","62","169924","0.0-9.0-1.26","en4jp9","Sat Feb 13 2021 17:33:23 GMT+0100 (Centraleuropæisk normaltid)","2021","2","13","17","33","23","uc11","21","male","right","41","27","90","9","1","","","","","test","happy","happy","h","true"
"null","<div style=""font-size:60px;"">+</div>","null","html-keyboard-response","63","171682","0.0-9.0-0.27","en4jp9","Sat Feb 13 2021 17:33:23 GMT+0100 (Centraleuropæisk normaltid)","2021","2","13","17","33","23","uc11","21","male","right","41","27","90","9","1","","","","","fixation","","","",""
"578.5200000100303","img/image_stim_h_stroop.png","72","image-keyboard-response","64","172263","0.0-9.0-1.27","en4jp9","Sat Feb 13 2021 17:33:23 GMT+0100 (Centraleuropæisk normaltid)","2021","2","13","17","33","23","uc11","21","male","right","41","27","90","9","1","","","","","test","happy","fear","h","true"
"null","<div style=""font-size:60px;"">+</div>","null","html-keyboard-response","65","172773","0.0-9.0-0.28","en4jp9","Sat Feb 13 2021 17:33:23 GMT+0100 (Centraleuropæisk normaltid)","2021","2","13","17","33","23","uc11","21","male","right","41","27","90","9","1","","","","","fixation","","","",""
"689.5149999763817","img/image_stim_f_stroop.png","70","image-keyboard-response","66","173465","0.0-9.0-1.28","en4jp9","Sat Feb 13 2021 17:33:23 GMT+0100 (Centraleuropæisk normaltid)","2021","2","13","17","33","23","uc11","21","male","right","41","27","90","9","1","","","","","test","fear","happy","f","true"
"null","<div style=""font-size:60px;"">+</div>","null","html-keyboard-response","67","173725","0.0-9.0-0.29","en4jp9","Sat Feb 13 2021 17:33:23 GMT+0100 (Centraleuropæisk normaltid)","2021","2","13","17","33","23","uc11","21","male","right","41","27","90","9","1","","","","","fixation","","","",""
"607.6049999974202","img/image_stim_h_stroop.png","72","image-keyboard-response","68","174336","0.0-9.0-1.29","en4jp9","Sat Feb 13 2021 17:33:23 GMT+0100 (Centraleuropæisk normaltid)","2021","2","13","17","33","23","uc11","21","male","right","41","27","90","9","1","","","","","test","happy","fear","h","true"
"null","<div style=""font-size:60px;"">+</div>","null","html-keyboard-response","69","175854","0.0-9.0-0.30","en4jp9","Sat Feb 13 2021 17:33:23 GMT+0100 (Centraleuropæisk normaltid)","2021","2","13","17","33","23","uc11","21","male","right","41","27","90","9","1","","","","","fixation","","","",""
"431.2950000166893","img/image_stim_f.png","70","image-keyboard-response","70","176289","0.0-9.0-1.30","en4jp9","Sat Feb 13 2021 17:33:23 GMT+0100 (Centraleuropæisk normaltid)","2021","2","13","17","33","23","uc11","21","male","right","41","27","90","9","1","","","","","test","fear","fear","f","true"
"null","<div style=""font-size:60px;"">+</div>","null","html-keyboard-response","71","176797","0.0-9.0-0.31","en4jp9","Sat Feb 13 2021 17:33:23 GMT+0100 (Centraleuropæisk normaltid)","2021","2","13","17","33","23","uc11","21","male","right","41","27","90","9","1","","","","","fixation","","","",""
"430.64499998581596","img/image_stim_h.png","72","image-keyboard-response","72","177231","0.0-9.0-1.31","en4jp9","Sat Feb 13 2021 17:33:23 GMT+0100 (Centraleuropæisk normaltid)","2021","2","13","17","33","23","uc11","21","male","right","41","27","90","9","1","","","","","test","happy","happy","h","true"
"null","<div style=""font-size:60px;"">+</div>","null","html-keyboard-response","73","177991","0.0-9.0-0.32","en4jp9","Sat Feb 13 2021 17:33:23 GMT+0100 (Centraleuropæisk normaltid)","2021","2","13","17","33","23","uc11","21","male","right","41","27","90","9","1","","","","","fixation","","","",""
"502.78999999864027","img/image_stim_h_stroop.png","72","image-keyboard-response","74","178497","0.0-9.0-1.32","en4jp9","Sat Feb 13 2021 17:33:23 GMT+0100 (Centraleuropæisk normaltid)","2021","2","13","17","33","23","uc11","21","male","right","41","27","90","9","1","","","","","test","happy","fear","h","true"
"null","<div style=""font-size:60px;"">+</div>","null","html-keyboard-response","75","180257","0.0-9.0-0.33","en4jp9","Sat Feb 13 2021 17:33:23 GMT+0100 (Centraleuropæisk normaltid)","2021","2","13","17","33","23","uc11","21","male","right","41","27","90","9","1","","","","","fixation","","","",""
"419.7649999987334","img/image_stim_f.png","70","image-keyboard-response","76","180679","0.0-9.0-1.33","en4jp9","Sat Feb 13 2021 17:33:23 GMT+0100 (Centraleuropæisk normaltid)","2021","2","13","17","33","23","uc11","21","male","right","41","27","90","9","1","","","","","test","fear","fear","f","true"
"null","<div style=""font-size:60px;"">+</div>","null","html-keyboard-response","77","182691","0.0-9.0-0.34","en4jp9","Sat Feb 13 2021 17:33:23 GMT+0100 (Centraleuropæisk normaltid)","2021","2","13","17","33","23","uc11","21","male","right","41","27","90","9","1","","","","","fixation","","","",""
"456.979999988107","img/image_stim_f_stroop.png","70","image-keyboard-response","78","183151","0.0-9.0-1.34","en4jp9","Sat Feb 13 2021 17:33:23 GMT+0100 (Centraleuropæisk normaltid)","2021","2","13","17","33","23","uc11","21","male","right","41","27","90","9","1","","","","","test","fear","happy","f","true"
"null","<div style=""font-size:60px;"">+</div>","null","html-keyboard-response","79","184911","0.0-9.0-0.35","en4jp9","Sat Feb 13 2021 17:33:23 GMT+0100 (Centraleuropæisk normaltid)","2021","2","13","17","33","23","uc11","21","male","right","41","27","90","9","1","","","","","fixation","","","",""
"478.49500001757406","img/image_stim_h.png","72","image-keyboard-response","80","185392","0.0-9.0-1.35","en4jp9","Sat Feb 13 2021 17:33:23 GMT+0100 (Centraleuropæisk normaltid)","2021","2","13","17","33","23","uc11","21","male","right","41","27","90","9","1","","","","","test","happy","happy","h","true"
