"rt","stimulus","key_press","trial_type","trial_index","time_elapsed","internal_node_id","exp_id","Time","year","month","date","hour","minute","seconds","id","age","Gender","Handedness","mood","fresh","hunger","H_since_Sleep","H_since_Eat","responses","question_order","slider_start","response","test_part","face","word","correct_response","correct"
"2053.839999716729","<p>Welcome to this experiment on daily rhythms and cognition.</p><p>First you will be asked some questions about yourself.</p><p>Then a short experiment will measure your response time.</p><p>Take the test at different times of the day/night.</p><p>The test is anonymous, but comparing your data across time is important.</p><p>Therefore, please make up and remember a personal ID (two letters+ two numbers).</p><p>Use this ID whenever taking the test.</p><p><strong>Press any key to begin.</strong></p>","32","html-keyboard-response","0","2056","0.0-0.0","qopukg","Wed Feb 10 2021 15:28:54 GMT+0100 (Centraleuropæisk normaltid)","2021","2","10","15","28","54","bj04","22","female","right","82","80","79","7","3","","","","","","","","",""
"4050.6349997594953","","","survey-text","1","6116","0.0-1.0","qopukg","Wed Feb 10 2021 15:28:54 GMT+0100 (Centraleuropæisk normaltid)","2021","2","10","15","28","54","bj04","22","female","right","82","80","79","7","3","{""Q0"":""bj04""}","","","","","","","",""
"2666.5400001220405","","","survey-text","2","8786","0.0-2.0","qopukg","Wed Feb 10 2021 15:28:54 GMT+0100 (Centraleuropæisk normaltid)","2021","2","10","15","28","54","bj04","22","female","right","82","80","79","7","3","{""Q0"":""22""}","","","","","","","",""
"5369.729999918491","","","survey-multi-select","3","14161","0.0-3.0","qopukg","Wed Feb 10 2021 15:28:54 GMT+0100 (Centraleuropæisk normaltid)","2021","2","10","15","28","54","bj04","22","female","right","82","80","79","7","3","{""Gender"":[""female""],""Hand"":[""right""]}","[0,1]","","","","","","",""
"8338.260000105947","<p>How Sad/Angry or Happy are you right now?</p>","","html-slider-response","4","22502","0.0-4.0","qopukg","Wed Feb 10 2021 15:28:54 GMT+0100 (Centraleuropæisk normaltid)","2021","2","10","15","28","54","bj04","22","female","right","82","80","79","7","3","","","50","82","","","","",""
"5545.135000254959","<p>How Tired/Sleepy/Distracted or Fresh/Awake/Alert are you right now?</p>","","html-slider-response","5","28048","0.0-5.0","qopukg","Wed Feb 10 2021 15:28:54 GMT+0100 (Centraleuropæisk normaltid)","2021","2","10","15","28","54","bj04","22","female","right","82","80","79","7","3","","","50","80","","","","",""
"4228.494999930263","<p>How Hungry or Satiated are you right now?</p>","","html-slider-response","6","32278","0.0-6.0","qopukg","Wed Feb 10 2021 15:28:54 GMT+0100 (Centraleuropæisk normaltid)","2021","2","10","15","28","54","bj04","22","female","right","82","80","79","7","3","","","50","79","","","","",""
"17331.520000007004","","","survey-multi-select","7","49631","0.0-7.0","qopukg","Wed Feb 10 2021 15:28:54 GMT+0100 (Centraleuropæisk normaltid)","2021","2","10","15","28","54","bj04","22","female","right","82","80","79","7","3","{""Sleep"":[""7""],""Eat"":[""3""]}","[0,1]","","","","","","",""
"7761.299999896437","<p>In this experiment, a face and a word will appear in the center of the screen.</p><p>If the face is <strong>happy</strong>, press the letter <strong>H</strong> with <strong>right</strong> index finger.</p><p>If the face is <strong>fearful</strong>, press the letter <strong>F</strong> with <strong>left</strong> index finger.</p><p><strong>Ignore the written words</strong>. Respond as fast as possible while being correct. </p><div style='width: 900px;'><div style='float: left;'><img src='img/stimuli_stroop_happy.png'></img><p class='small'><strong>Press the H key for happy faces</strong></p></div><div class='float: right;'><img src='img/stimuli_stroop_fear.png'></img><p class='small'><strong>Press the F key for faces with fear</strong></p></div></div><p>If the screen turns blank, press <strong>SPACE</strong></p><p><strong>Press any key to begin.</strong></p>","32","html-keyboard-response","8","57394","0.0-8.0","qopukg","Wed Feb 10 2021 15:28:54 GMT+0100 (Centraleuropæisk normaltid)","2021","2","10","15","28","54","bj04","22","female","right","82","80","79","7","3","","","","","","","","",""
"null","<div style=""font-size:60px;"">+</div>","null","html-keyboard-response","9","59906","0.0-9.0-0.0","qopukg","Wed Feb 10 2021 15:28:54 GMT+0100 (Centraleuropæisk normaltid)","2021","2","10","15","28","54","bj04","22","female","right","82","80","79","7","3","","","","","fixation","","","",""
"3617.700000293553","img/image_stim_f.png","70","image-keyboard-response","10","63548","0.0-9.0-1.0","qopukg","Wed Feb 10 2021 15:28:54 GMT+0100 (Centraleuropæisk normaltid)","2021","2","10","15","28","54","bj04","22","female","right","82","80","79","7","3","","","","","test","fear","fear","f","true"
"null","<div style=""font-size:60px;"">+</div>","null","html-keyboard-response","11","64819","0.0-9.0-0.1","qopukg","Wed Feb 10 2021 15:28:54 GMT+0100 (Centraleuropæisk normaltid)","2021","2","10","15","28","54","bj04","22","female","right","82","80","79","7","3","","","","","fixation","","","",""
"1500.0350000336766","img/image_stim_h.png","72","image-keyboard-response","12","66322","0.0-9.0-1.1","qopukg","Wed Feb 10 2021 15:28:54 GMT+0100 (Centraleuropæisk normaltid)","2021","2","10","15","28","54","bj04","22","female","right","82","80","79","7","3","","","","","test","happy","happy","h","true"
"null","<div style=""font-size:60px;"">+</div>","null","html-keyboard-response","13","66593","0.0-9.0-0.2","qopukg","Wed Feb 10 2021 15:28:54 GMT+0100 (Centraleuropæisk normaltid)","2021","2","10","15","28","54","bj04","22","female","right","82","80","79","7","3","","","","","fixation","","","",""
"526.1000003665686","img/image_stim_f_stroop.png","70","image-keyboard-response","14","67122","0.0-9.0-1.2","qopukg","Wed Feb 10 2021 15:28:54 GMT+0100 (Centraleuropæisk normaltid)","2021","2","10","15","28","54","bj04","22","female","right","82","80","79","7","3","","","","","test","fear","happy","f","true"
"null","<div style=""font-size:60px;"">+</div>","null","html-keyboard-response","15","68641","0.0-9.0-0.3","qopukg","Wed Feb 10 2021 15:28:54 GMT+0100 (Centraleuropæisk normaltid)","2021","2","10","15","28","54","bj04","22","female","right","82","80","79","7","3","","","","","fixation","","","",""
"550.9500000625849","img/image_stim_h_stroop.png","72","image-keyboard-response","16","69195","0.0-9.0-1.3","qopukg","Wed Feb 10 2021 15:28:54 GMT+0100 (Centraleuropæisk normaltid)","2021","2","10","15","28","54","bj04","22","female","right","82","80","79","7","3","","","","","test","happy","fear","h","true"
"null","<div style=""font-size:60px;"">+</div>","null","html-keyboard-response","17","69709","0.0-9.0-0.4","qopukg","Wed Feb 10 2021 15:28:54 GMT+0100 (Centraleuropæisk normaltid)","2021","2","10","15","28","54","bj04","22","female","right","82","80","79","7","3","","","","","fixation","","","",""
"462.6350002363324","img/image_stim_h.png","72","image-keyboard-response","18","70174","0.0-9.0-1.4","qopukg","Wed Feb 10 2021 15:28:54 GMT+0100 (Centraleuropæisk normaltid)","2021","2","10","15","28","54","bj04","22","female","right","82","80","79","7","3","","","","","test","happy","happy","h","true"
"null","<div style=""font-size:60px;"">+</div>","null","html-keyboard-response","19","71442","0.0-9.0-0.5","qopukg","Wed Feb 10 2021 15:28:54 GMT+0100 (Centraleuropæisk normaltid)","2021","2","10","15","28","54","bj04","22","female","right","82","80","79","7","3","","","","","fixation","","","",""
"389.1150001436472","img/image_stim_f_stroop.png","70","image-keyboard-response","20","71834","0.0-9.0-1.5","qopukg","Wed Feb 10 2021 15:28:54 GMT+0100 (Centraleuropæisk normaltid)","2021","2","10","15","28","54","bj04","22","female","right","82","80","79","7","3","","","","","test","fear","happy","f","true"
"null","<div style=""font-size:60px;"">+</div>","null","html-keyboard-response","21","73850","0.0-9.0-0.6","qopukg","Wed Feb 10 2021 15:28:54 GMT+0100 (Centraleuropæisk normaltid)","2021","2","10","15","28","54","bj04","22","female","right","82","80","79","7","3","","","","","fixation","","","",""
"530.629999935627","img/image_stim_h_stroop.png","70","image-keyboard-response","22","74384","0.0-9.0-1.6","qopukg","Wed Feb 10 2021 15:28:54 GMT+0100 (Centraleuropæisk normaltid)","2021","2","10","15","28","54","bj04","22","female","right","82","80","79","7","3","","","","","test","happy","fear","h","false"
"null","<div style=""font-size:60px;"">+</div>","null","html-keyboard-response","23","76145","0.0-9.0-0.7","qopukg","Wed Feb 10 2021 15:28:54 GMT+0100 (Centraleuropæisk normaltid)","2021","2","10","15","28","54","bj04","22","female","right","82","80","79","7","3","","","","","fixation","","","",""
"566.930000204593","img/image_stim_f.png","70","image-keyboard-response","24","76715","0.0-9.0-1.7","qopukg","Wed Feb 10 2021 15:28:54 GMT+0100 (Centraleuropæisk normaltid)","2021","2","10","15","28","54","bj04","22","female","right","82","80","79","7","3","","","","","test","fear","fear","f","true"
"null","<div style=""font-size:60px;"">+</div>","null","html-keyboard-response","25","78223","0.0-9.0-0.8","qopukg","Wed Feb 10 2021 15:28:54 GMT+0100 (Centraleuropæisk normaltid)","2021","2","10","15","28","54","bj04","22","female","right","82","80","79","7","3","","","","","fixation","","","",""
"807.194999884814","img/image_stim_f.png","70","image-keyboard-response","26","79033","0.0-9.0-1.8","qopukg","Wed Feb 10 2021 15:28:54 GMT+0100 (Centraleuropæisk normaltid)","2021","2","10","15","28","54","bj04","22","female","right","82","80","79","7","3","","","","","test","fear","fear","f","true"
"null","<div style=""font-size:60px;"">+</div>","null","html-keyboard-response","27","79799","0.0-9.0-0.9","qopukg","Wed Feb 10 2021 15:28:54 GMT+0100 (Centraleuropæisk normaltid)","2021","2","10","15","28","54","bj04","22","female","right","82","80","79","7","3","","","","","fixation","","","",""
"520.3650002367795","img/image_stim_f_stroop.png","70","image-keyboard-response","28","80322","0.0-9.0-1.9","qopukg","Wed Feb 10 2021 15:28:54 GMT+0100 (Centraleuropæisk normaltid)","2021","2","10","15","28","54","bj04","22","female","right","82","80","79","7","3","","","","","test","fear","happy","f","true"
"null","<div style=""font-size:60px;"">+</div>","null","html-keyboard-response","29","80593","0.0-9.0-0.10","qopukg","Wed Feb 10 2021 15:28:54 GMT+0100 (Centraleuropæisk normaltid)","2021","2","10","15","28","54","bj04","22","female","right","82","80","79","7","3","","","","","fixation","","","",""
"584.2800000682473","img/image_stim_h.png","72","image-keyboard-response","30","81180","0.0-9.0-1.10","qopukg","Wed Feb 10 2021 15:28:54 GMT+0100 (Centraleuropæisk normaltid)","2021","2","10","15","28","54","bj04","22","female","right","82","80","79","7","3","","","","","test","happy","happy","h","true"
"null","<div style=""font-size:60px;"">+</div>","null","html-keyboard-response","31","81694","0.0-9.0-0.11","qopukg","Wed Feb 10 2021 15:28:54 GMT+0100 (Centraleuropæisk normaltid)","2021","2","10","15","28","54","bj04","22","female","right","82","80","79","7","3","","","","","fixation","","","",""
"337.9299999214709","img/image_stim_h_stroop.png","72","image-keyboard-response","32","82035","0.0-9.0-1.11","qopukg","Wed Feb 10 2021 15:28:54 GMT+0100 (Centraleuropæisk normaltid)","2021","2","10","15","28","54","bj04","22","female","right","82","80","79","7","3","","","","","test","happy","fear","h","true"
"null","<div style=""font-size:60px;"">+</div>","null","html-keyboard-response","33","83306","0.0-9.0-0.12","qopukg","Wed Feb 10 2021 15:28:54 GMT+0100 (Centraleuropæisk normaltid)","2021","2","10","15","28","54","bj04","22","female","right","82","80","79","7","3","","","","","fixation","","","",""
"362.5949998386204","img/image_stim_h.png","72","image-keyboard-response","34","83671","0.0-9.0-1.12","qopukg","Wed Feb 10 2021 15:28:54 GMT+0100 (Centraleuropæisk normaltid)","2021","2","10","15","28","54","bj04","22","female","right","82","80","79","7","3","","","","","test","happy","happy","h","true"
"null","<div style=""font-size:60px;"">+</div>","null","html-keyboard-response","35","84190","0.0-9.0-0.13","qopukg","Wed Feb 10 2021 15:28:54 GMT+0100 (Centraleuropæisk normaltid)","2021","2","10","15","28","54","bj04","22","female","right","82","80","79","7","3","","","","","fixation","","","",""
"320.8300000987947","img/image_stim_h_stroop.png","72","image-keyboard-response","36","84514","0.0-9.0-1.13","qopukg","Wed Feb 10 2021 15:28:54 GMT+0100 (Centraleuropæisk normaltid)","2021","2","10","15","28","54","bj04","22","female","right","82","80","79","7","3","","","","","test","happy","fear","h","true"
"null","<div style=""font-size:60px;"">+</div>","null","html-keyboard-response","37","85285","0.0-9.0-0.14","qopukg","Wed Feb 10 2021 15:28:54 GMT+0100 (Centraleuropæisk normaltid)","2021","2","10","15","28","54","bj04","22","female","right","82","80","79","7","3","","","","","fixation","","","",""
"405.3199999034405","img/image_stim_f_stroop.png","70","image-keyboard-response","38","85693","0.0-9.0-1.14","qopukg","Wed Feb 10 2021 15:28:54 GMT+0100 (Centraleuropæisk normaltid)","2021","2","10","15","28","54","bj04","22","female","right","82","80","79","7","3","","","","","test","fear","happy","f","true"
"null","<div style=""font-size:60px;"">+</div>","null","html-keyboard-response","39","86715","0.0-9.0-0.15","qopukg","Wed Feb 10 2021 15:28:54 GMT+0100 (Centraleuropæisk normaltid)","2021","2","10","15","28","54","bj04","22","female","right","82","80","79","7","3","","","","","fixation","","","",""
"571.9249998219311","img/image_stim_f.png","70","image-keyboard-response","40","87290","0.0-9.0-1.15","qopukg","Wed Feb 10 2021 15:28:54 GMT+0100 (Centraleuropæisk normaltid)","2021","2","10","15","28","54","bj04","22","female","right","82","80","79","7","3","","","","","test","fear","fear","f","true"
"null","<div style=""font-size:60px;"">+</div>","null","html-keyboard-response","41","88554","0.0-9.0-0.16","qopukg","Wed Feb 10 2021 15:28:54 GMT+0100 (Centraleuropæisk normaltid)","2021","2","10","15","28","54","bj04","22","female","right","82","80","79","7","3","","","","","fixation","","","",""
"377.0699999295175","img/image_stim_f.png","70","image-keyboard-response","42","88934","0.0-9.0-1.16","qopukg","Wed Feb 10 2021 15:28:54 GMT+0100 (Centraleuropæisk normaltid)","2021","2","10","15","28","54","bj04","22","female","right","82","80","79","7","3","","","","","test","fear","fear","f","true"
"null","<div style=""font-size:60px;"">+</div>","null","html-keyboard-response","43","90192","0.0-9.0-0.17","qopukg","Wed Feb 10 2021 15:28:54 GMT+0100 (Centraleuropæisk normaltid)","2021","2","10","15","28","54","bj04","22","female","right","82","80","79","7","3","","","","","fixation","","","",""
"402.4249999783933","img/image_stim_h_stroop.png","72","image-keyboard-response","44","90598","0.0-9.0-1.17","qopukg","Wed Feb 10 2021 15:28:54 GMT+0100 (Centraleuropæisk normaltid)","2021","2","10","15","28","54","bj04","22","female","right","82","80","79","7","3","","","","","test","happy","fear","h","true"
"null","<div style=""font-size:60px;"">+</div>","null","html-keyboard-response","45","92612","0.0-9.0-0.18","qopukg","Wed Feb 10 2021 15:28:54 GMT+0100 (Centraleuropæisk normaltid)","2021","2","10","15","28","54","bj04","22","female","right","82","80","79","7","3","","","","","fixation","","","",""
"382.6799998059869","img/image_stim_f_stroop.png","70","image-keyboard-response","46","92996","0.0-9.0-1.18","qopukg","Wed Feb 10 2021 15:28:54 GMT+0100 (Centraleuropæisk normaltid)","2021","2","10","15","28","54","bj04","22","female","right","82","80","79","7","3","","","","","test","fear","happy","f","true"
"null","<div style=""font-size:60px;"">+</div>","null","html-keyboard-response","47","94270","0.0-9.0-0.19","qopukg","Wed Feb 10 2021 15:28:54 GMT+0100 (Centraleuropæisk normaltid)","2021","2","10","15","28","54","bj04","22","female","right","82","80","79","7","3","","","","","fixation","","","",""
"330.1049997098744","img/image_stim_h.png","72","image-keyboard-response","48","94603","0.0-9.0-1.19","qopukg","Wed Feb 10 2021 15:28:54 GMT+0100 (Centraleuropæisk normaltid)","2021","2","10","15","28","54","bj04","22","female","right","82","80","79","7","3","","","","","test","happy","happy","h","true"
"null","<div style=""font-size:60px;"">+</div>","null","html-keyboard-response","49","96365","0.0-9.0-0.20","qopukg","Wed Feb 10 2021 15:28:54 GMT+0100 (Centraleuropæisk normaltid)","2021","2","10","15","28","54","bj04","22","female","right","82","80","79","7","3","","","","","fixation","","","",""
"389.94499994441867","img/image_stim_f_stroop.png","72","image-keyboard-response","50","96758","0.0-9.0-1.20","qopukg","Wed Feb 10 2021 15:28:54 GMT+0100 (Centraleuropæisk normaltid)","2021","2","10","15","28","54","bj04","22","female","right","82","80","79","7","3","","","","","test","fear","happy","f","false"
"null","<div style=""font-size:60px;"">+</div>","null","html-keyboard-response","51","98020","0.0-9.0-0.21","qopukg","Wed Feb 10 2021 15:28:54 GMT+0100 (Centraleuropæisk normaltid)","2021","2","10","15","28","54","bj04","22","female","right","82","80","79","7","3","","","","","fixation","","","",""
"685.5150000192225","img/image_stim_h_stroop.png","72","image-keyboard-response","52","98708","0.0-9.0-1.21","qopukg","Wed Feb 10 2021 15:28:54 GMT+0100 (Centraleuropæisk normaltid)","2021","2","10","15","28","54","bj04","22","female","right","82","80","79","7","3","","","","","test","happy","fear","h","true"
"null","<div style=""font-size:60px;"">+</div>","null","html-keyboard-response","53","99716","0.0-9.0-0.22","qopukg","Wed Feb 10 2021 15:28:54 GMT+0100 (Centraleuropæisk normaltid)","2021","2","10","15","28","54","bj04","22","female","right","82","80","79","7","3","","","","","fixation","","","",""
"632.9000000841916","img/image_stim_h.png","72","image-keyboard-response","54","100352","0.0-9.0-1.22","qopukg","Wed Feb 10 2021 15:28:54 GMT+0100 (Centraleuropæisk normaltid)","2021","2","10","15","28","54","bj04","22","female","right","82","80","79","7","3","","","","","test","happy","happy","h","true"
"null","<div style=""font-size:60px;"">+</div>","null","html-keyboard-response","55","101120","0.0-9.0-0.23","qopukg","Wed Feb 10 2021 15:28:54 GMT+0100 (Centraleuropæisk normaltid)","2021","2","10","15","28","54","bj04","22","female","right","82","80","79","7","3","","","","","fixation","","","",""
"414.95999973267317","img/image_stim_f.png","70","image-keyboard-response","56","101538","0.0-9.0-1.23","qopukg","Wed Feb 10 2021 15:28:54 GMT+0100 (Centraleuropæisk normaltid)","2021","2","10","15","28","54","bj04","22","female","right","82","80","79","7","3","","","","","test","fear","fear","f","true"
"null","<div style=""font-size:60px;"">+</div>","null","html-keyboard-response","57","102796","0.0-9.0-0.24","qopukg","Wed Feb 10 2021 15:28:54 GMT+0100 (Centraleuropæisk normaltid)","2021","2","10","15","28","54","bj04","22","female","right","82","80","79","7","3","","","","","fixation","","","",""
"519.9399995617568","img/image_stim_f_stroop.png","70","image-keyboard-response","58","103319","0.0-9.0-1.24","qopukg","Wed Feb 10 2021 15:28:54 GMT+0100 (Centraleuropæisk normaltid)","2021","2","10","15","28","54","bj04","22","female","right","82","80","79","7","3","","","","","test","fear","happy","f","true"
"null","<div style=""font-size:60px;"">+</div>","null","html-keyboard-response","59","105085","0.0-9.0-0.25","qopukg","Wed Feb 10 2021 15:28:54 GMT+0100 (Centraleuropæisk normaltid)","2021","2","10","15","28","54","bj04","22","female","right","82","80","79","7","3","","","","","fixation","","","",""
"557.5299998745322","img/image_stim_f.png","70","image-keyboard-response","60","105646","0.0-9.0-1.25","qopukg","Wed Feb 10 2021 15:28:54 GMT+0100 (Centraleuropæisk normaltid)","2021","2","10","15","28","54","bj04","22","female","right","82","80","79","7","3","","","","","test","fear","fear","f","true"
"null","<div style=""font-size:60px;"">+</div>","null","html-keyboard-response","61","106406","0.0-9.0-0.26","qopukg","Wed Feb 10 2021 15:28:54 GMT+0100 (Centraleuropæisk normaltid)","2021","2","10","15","28","54","bj04","22","female","right","82","80","79","7","3","","","","","fixation","","","",""
"373.1900001876056","img/image_stim_h.png","72","image-keyboard-response","62","106782","0.0-9.0-1.26","qopukg","Wed Feb 10 2021 15:28:54 GMT+0100 (Centraleuropæisk normaltid)","2021","2","10","15","28","54","bj04","22","female","right","82","80","79","7","3","","","","","test","happy","happy","h","true"
"null","<div style=""font-size:60px;"">+</div>","null","html-keyboard-response","63","108051","0.0-9.0-0.27","qopukg","Wed Feb 10 2021 15:28:54 GMT+0100 (Centraleuropæisk normaltid)","2021","2","10","15","28","54","bj04","22","female","right","82","80","79","7","3","","","","","fixation","","","",""
"476.7649997957051","img/image_stim_h_stroop.png","72","image-keyboard-response","64","108531","0.0-9.0-1.27","qopukg","Wed Feb 10 2021 15:28:54 GMT+0100 (Centraleuropæisk normaltid)","2021","2","10","15","28","54","bj04","22","female","right","82","80","79","7","3","","","","","test","happy","fear","h","true"
"null","<div style=""font-size:60px;"">+</div>","null","html-keyboard-response","65","109793","0.0-9.0-0.28","qopukg","Wed Feb 10 2021 15:28:54 GMT+0100 (Centraleuropæisk normaltid)","2021","2","10","15","28","54","bj04","22","female","right","82","80","79","7","3","","","","","fixation","","","",""
"389.2850000411272","img/image_stim_h.png","72","image-keyboard-response","66","110185","0.0-9.0-1.28","qopukg","Wed Feb 10 2021 15:28:54 GMT+0100 (Centraleuropæisk normaltid)","2021","2","10","15","28","54","bj04","22","female","right","82","80","79","7","3","","","","","test","happy","happy","h","true"
"null","<div style=""font-size:60px;"">+</div>","null","html-keyboard-response","67","112204","0.0-9.0-0.29","qopukg","Wed Feb 10 2021 15:28:54 GMT+0100 (Centraleuropæisk normaltid)","2021","2","10","15","28","54","bj04","22","female","right","82","80","79","7","3","","","","","fixation","","","",""
"348.43500005081296","img/image_stim_f.png","70","image-keyboard-response","68","112557","0.0-9.0-1.29","qopukg","Wed Feb 10 2021 15:28:54 GMT+0100 (Centraleuropæisk normaltid)","2021","2","10","15","28","54","bj04","22","female","right","82","80","79","7","3","","","","","test","fear","fear","f","true"
"null","<div style=""font-size:60px;"">+</div>","null","html-keyboard-response","69","112837","0.0-9.0-0.30","qopukg","Wed Feb 10 2021 15:28:54 GMT+0100 (Centraleuropæisk normaltid)","2021","2","10","15","28","54","bj04","22","female","right","82","80","79","7","3","","","","","fixation","","","",""
"399.2949998937547","img/image_stim_f_stroop.png","70","image-keyboard-response","70","113239","0.0-9.0-1.30","qopukg","Wed Feb 10 2021 15:28:54 GMT+0100 (Centraleuropæisk normaltid)","2021","2","10","15","28","54","bj04","22","female","right","82","80","79","7","3","","","","","test","fear","happy","f","true"
"null","<div style=""font-size:60px;"">+</div>","null","html-keyboard-response","71","113757","0.0-9.0-0.31","qopukg","Wed Feb 10 2021 15:28:54 GMT+0100 (Centraleuropæisk normaltid)","2021","2","10","15","28","54","bj04","22","female","right","82","80","79","7","3","","","","","fixation","","","",""
"467.9899998009205","img/image_stim_h_stroop.png","72","image-keyboard-response","72","114228","0.0-9.0-1.31","qopukg","Wed Feb 10 2021 15:28:54 GMT+0100 (Centraleuropæisk normaltid)","2021","2","10","15","28","54","bj04","22","female","right","82","80","79","7","3","","","","","test","happy","fear","h","true"
"null","<div style=""font-size:60px;"">+</div>","null","html-keyboard-response","73","115499","0.0-9.0-0.32","qopukg","Wed Feb 10 2021 15:28:54 GMT+0100 (Centraleuropæisk normaltid)","2021","2","10","15","28","54","bj04","22","female","right","82","80","79","7","3","","","","","fixation","","","",""
"430.0450002774596","img/image_stim_h_stroop.png","70","image-keyboard-response","74","115932","0.0-9.0-1.32","qopukg","Wed Feb 10 2021 15:28:54 GMT+0100 (Centraleuropæisk normaltid)","2021","2","10","15","28","54","bj04","22","female","right","82","80","79","7","3","","","","","test","happy","fear","h","false"
"null","<div style=""font-size:60px;"">+</div>","null","html-keyboard-response","75","116704","0.0-9.0-0.33","qopukg","Wed Feb 10 2021 15:28:54 GMT+0100 (Centraleuropæisk normaltid)","2021","2","10","15","28","54","bj04","22","female","right","82","80","79","7","3","","","","","fixation","","","",""
"595.7149998284876","img/image_stim_f_stroop.png","70","image-keyboard-response","76","117303","0.0-9.0-1.33","qopukg","Wed Feb 10 2021 15:28:54 GMT+0100 (Centraleuropæisk normaltid)","2021","2","10","15","28","54","bj04","22","female","right","82","80","79","7","3","","","","","test","fear","happy","f","true"
"null","<div style=""font-size:60px;"">+</div>","null","html-keyboard-response","77","118825","0.0-9.0-0.34","qopukg","Wed Feb 10 2021 15:28:54 GMT+0100 (Centraleuropæisk normaltid)","2021","2","10","15","28","54","bj04","22","female","right","82","80","79","7","3","","","","","fixation","","","",""
"445.3250002115965","img/image_stim_f.png","70","image-keyboard-response","78","119272","0.0-9.0-1.34","qopukg","Wed Feb 10 2021 15:28:54 GMT+0100 (Centraleuropæisk normaltid)","2021","2","10","15","28","54","bj04","22","female","right","82","80","79","7","3","","","","","test","fear","fear","f","true"
"null","<div style=""font-size:60px;"">+</div>","null","html-keyboard-response","79","121304","0.0-9.0-0.35","qopukg","Wed Feb 10 2021 15:28:54 GMT+0100 (Centraleuropæisk normaltid)","2021","2","10","15","28","54","bj04","22","female","right","82","80","79","7","3","","","","","fixation","","","",""
"365.8300000242889","img/image_stim_h.png","72","image-keyboard-response","80","121672","0.0-9.0-1.35","qopukg","Wed Feb 10 2021 15:28:54 GMT+0100 (Centraleuropæisk normaltid)","2021","2","10","15","28","54","bj04","22","female","right","82","80","79","7","3","","","","","test","happy","happy","h","true"
