"rt","stimulus","key_press","trial_type","trial_index","time_elapsed","internal_node_id","exp_id","Time","year","month","date","hour","minute","seconds","id","age","Gender","Handedness","mood","fresh","hunger","H_since_Sleep","H_since_Eat","responses","question_order","slider_start","response","test_part","face","word","correct_response","correct"
"9579","<p>Welcome to this experiment on daily rhythms and cognition.</p><p>First you will be asked some questions about yourself.</p><p>Then a short experiment will measure your response time.</p><p>Take the test at different times of the day/night.</p><p>The test is anonymous, but comparing your data across time is important.</p><p>Therefore, please make up and remember a personal ID (two letters+ two numbers).</p><p>Use this ID whenever taking the test.</p><p><strong>Press any key to begin.</strong></p>","32","html-keyboard-response","0","9583","0.0-0.0","bxnukj","Fri Feb 11 2022 08:39:57 GMT+0100 (CET)","2022","2","11","8","39","57","lola","22","female","right","50","8","12","0","11","","","","","","","","",""
"4954","","","survey-text","1","14590","0.0-1.0","bxnukj","Fri Feb 11 2022 08:39:57 GMT+0100 (CET)","2022","2","11","8","39","57","lola","22","female","right","50","8","12","0","11","{""Q0"":""lola""}","","","","","","","",""
"5308.000000000004","","","survey-text","2","19907","0.0-2.0","bxnukj","Fri Feb 11 2022 08:39:57 GMT+0100 (CET)","2022","2","11","8","39","57","lola","22","female","right","50","8","12","0","11","{""Q0"":""22""}","","","","","","","",""
"5229.999999999996","","","survey-multi-select","3","25140","0.0-3.0","bxnukj","Fri Feb 11 2022 08:39:57 GMT+0100 (CET)","2022","2","11","8","39","57","lola","22","female","right","50","8","12","0","11","{""Gender"":[""female""],""Hand"":[""right""]}","[0,1]","","","","","","",""
"5107","<p>How Sad/Angry or Happy are you right now?</p>","","html-slider-response","4","30262","0.0-4.0","bxnukj","Fri Feb 11 2022 08:39:57 GMT+0100 (CET)","2022","2","11","8","39","57","lola","22","female","right","50","8","12","0","11","","","50","50","","","","",""
"6217.999999999996","<p>How Tired/Sleepy/Distracted or Fresh/Awake/Alert are you right now?</p>","","html-slider-response","5","36481","0.0-5.0","bxnukj","Fri Feb 11 2022 08:39:57 GMT+0100 (CET)","2022","2","11","8","39","57","lola","22","female","right","50","8","12","0","11","","","50","8","","","","",""
"4215","<p>How Hungry or Satiated are you right now?</p>","","html-slider-response","6","40698","0.0-6.0","bxnukj","Fri Feb 11 2022 08:39:57 GMT+0100 (CET)","2022","2","11","8","39","57","lola","22","female","right","50","8","12","0","11","","","50","12","","","","",""
"24399","","","survey-multi-select","7","65120","0.0-7.0","bxnukj","Fri Feb 11 2022 08:39:57 GMT+0100 (CET)","2022","2","11","8","39","57","lola","22","female","right","50","8","12","0","11","{""Sleep"":[""0""],""Eat"":[""11""]}","[0,1]","","","","","","",""
"21845","<p>In this experiment, a face and a word will appear in the center of the screen.</p><p>If the face is <strong>happy</strong>, press the letter <strong>H</strong> with <strong>right</strong> index finger.</p><p>If the face is <strong>fearful</strong>, press the letter <strong>F</strong> with <strong>left</strong> index finger.</p><p><strong>Ignore the written words</strong>. Respond as fast as possible while being correct. </p><div style='width: 900px;'><div style='float: left;'><img src='img/stimuli_stroop_happy.png'></img><p class='small'><strong>Press the H key for happy faces</strong></p></div><div class='float: right;'><img src='img/stimuli_stroop_fear.png'></img><p class='small'><strong>Press the F key for faces with fear</strong></p></div></div><p>If the screen turns blank, press <strong>SPACE</strong></p><p><strong>Press any key to begin.</strong></p>","32","html-keyboard-response","8","86970","0.0-8.0","bxnukj","Fri Feb 11 2022 08:39:57 GMT+0100 (CET)","2022","2","11","8","39","57","lola","22","female","right","50","8","12","0","11","","","","","","","","",""
"null","<div style=""font-size:60px;"">+</div>","null","html-keyboard-response","9","90972","0.0-9.0-0.0","bxnukj","Fri Feb 11 2022 08:39:57 GMT+0100 (CET)","2022","2","11","8","39","57","lola","22","female","right","50","8","12","0","11","","","","","fixation","","","",""
"984","img/image_stim_h_stroop.png","72","image-keyboard-response","10","91979","0.0-9.0-1.0","bxnukj","Fri Feb 11 2022 08:39:57 GMT+0100 (CET)","2022","2","11","8","39","57","lola","22","female","right","50","8","12","0","11","","","","","test","happy","fear","h","true"
"null","<div style=""font-size:60px;"">+</div>","null","html-keyboard-response","11","92985","0.0-9.0-0.1","bxnukj","Fri Feb 11 2022 08:39:57 GMT+0100 (CET)","2022","2","11","8","39","57","lola","22","female","right","50","8","12","0","11","","","","","fixation","","","",""
"1237","img/image_stim_f_stroop.png","70","image-keyboard-response","12","94224","0.0-9.0-1.1","bxnukj","Fri Feb 11 2022 08:39:57 GMT+0100 (CET)","2022","2","11","8","39","57","lola","22","female","right","50","8","12","0","11","","","","","test","fear","happy","f","true"
"null","<div style=""font-size:60px;"">+</div>","null","html-keyboard-response","13","96229","0.0-9.0-0.2","bxnukj","Fri Feb 11 2022 08:39:57 GMT+0100 (CET)","2022","2","11","8","39","57","lola","22","female","right","50","8","12","0","11","","","","","fixation","","","",""
"521","img/image_stim_h.png","72","image-keyboard-response","14","96751","0.0-9.0-1.2","bxnukj","Fri Feb 11 2022 08:39:57 GMT+0100 (CET)","2022","2","11","8","39","57","lola","22","female","right","50","8","12","0","11","","","","","test","happy","happy","h","true"
"null","<div style=""font-size:60px;"">+</div>","null","html-keyboard-response","15","98006","0.0-9.0-0.3","bxnukj","Fri Feb 11 2022 08:39:57 GMT+0100 (CET)","2022","2","11","8","39","57","lola","22","female","right","50","8","12","0","11","","","","","fixation","","","",""
"552.0000000000146","img/image_stim_f.png","70","image-keyboard-response","16","98561","0.0-9.0-1.3","bxnukj","Fri Feb 11 2022 08:39:57 GMT+0100 (CET)","2022","2","11","8","39","57","lola","22","female","right","50","8","12","0","11","","","","","test","fear","fear","f","true"
"null","<div style=""font-size:60px;"">+</div>","null","html-keyboard-response","17","99815","0.0-9.0-0.4","bxnukj","Fri Feb 11 2022 08:39:57 GMT+0100 (CET)","2022","2","11","8","39","57","lola","22","female","right","50","8","12","0","11","","","","","fixation","","","",""
"655.9999999999854","img/image_stim_f.png","70","image-keyboard-response","18","100473","0.0-9.0-1.4","bxnukj","Fri Feb 11 2022 08:39:57 GMT+0100 (CET)","2022","2","11","8","39","57","lola","22","female","right","50","8","12","0","11","","","","","test","fear","fear","f","true"
"null","<div style=""font-size:60px;"">+</div>","null","html-keyboard-response","19","100979","0.0-9.0-0.5","bxnukj","Fri Feb 11 2022 08:39:57 GMT+0100 (CET)","2022","2","11","8","39","57","lola","22","female","right","50","8","12","0","11","","","","","fixation","","","",""
"1107","img/image_stim_f_stroop.png","72","image-keyboard-response","20","102087","0.0-9.0-1.5","bxnukj","Fri Feb 11 2022 08:39:57 GMT+0100 (CET)","2022","2","11","8","39","57","lola","22","female","right","50","8","12","0","11","","","","","test","fear","happy","f","false"
"null","<div style=""font-size:60px;"">+</div>","null","html-keyboard-response","21","102341","0.0-9.0-0.6","bxnukj","Fri Feb 11 2022 08:39:57 GMT+0100 (CET)","2022","2","11","8","39","57","lola","22","female","right","50","8","12","0","11","","","","","fixation","","","",""
"1090.0000000000146","img/image_stim_h_stroop.png","72","image-keyboard-response","22","103433","0.0-9.0-1.6","bxnukj","Fri Feb 11 2022 08:39:57 GMT+0100 (CET)","2022","2","11","8","39","57","lola","22","female","right","50","8","12","0","11","","","","","test","happy","fear","h","true"
"null","<div style=""font-size:60px;"">+</div>","null","html-keyboard-response","23","104940","0.0-9.0-0.7","bxnukj","Fri Feb 11 2022 08:39:57 GMT+0100 (CET)","2022","2","11","8","39","57","lola","22","female","right","50","8","12","0","11","","","","","fixation","","","",""
"729","img/image_stim_h.png","72","image-keyboard-response","24","105670","0.0-9.0-1.7","bxnukj","Fri Feb 11 2022 08:39:57 GMT+0100 (CET)","2022","2","11","8","39","57","lola","22","female","right","50","8","12","0","11","","","","","test","happy","happy","h","true"
"null","<div style=""font-size:60px;"">+</div>","null","html-keyboard-response","25","105926","0.0-9.0-0.8","bxnukj","Fri Feb 11 2022 08:39:57 GMT+0100 (CET)","2022","2","11","8","39","57","lola","22","female","right","50","8","12","0","11","","","","","fixation","","","",""
"516","img/image_stim_h.png","72","image-keyboard-response","26","106445","0.0-9.0-1.8","bxnukj","Fri Feb 11 2022 08:39:57 GMT+0100 (CET)","2022","2","11","8","39","57","lola","22","female","right","50","8","12","0","11","","","","","test","happy","happy","h","true"
"null","<div style=""font-size:60px;"">+</div>","null","html-keyboard-response","27","108450","0.0-9.0-0.9","bxnukj","Fri Feb 11 2022 08:39:57 GMT+0100 (CET)","2022","2","11","8","39","57","lola","22","female","right","50","8","12","0","11","","","","","fixation","","","",""
"1136","img/image_stim_h_stroop.png","72","image-keyboard-response","28","109588","0.0-9.0-1.9","bxnukj","Fri Feb 11 2022 08:39:57 GMT+0100 (CET)","2022","2","11","8","39","57","lola","22","female","right","50","8","12","0","11","","","","","test","happy","fear","h","true"
"null","<div style=""font-size:60px;"">+</div>","null","html-keyboard-response","29","109846","0.0-9.0-0.10","bxnukj","Fri Feb 11 2022 08:39:57 GMT+0100 (CET)","2022","2","11","8","39","57","lola","22","female","right","50","8","12","0","11","","","","","fixation","","","",""
"722.0000000000146","img/image_stim_f_stroop.png","70","image-keyboard-response","30","110570","0.0-9.0-1.10","bxnukj","Fri Feb 11 2022 08:39:57 GMT+0100 (CET)","2022","2","11","8","39","57","lola","22","female","right","50","8","12","0","11","","","","","test","fear","happy","f","true"
"null","<div style=""font-size:60px;"">+</div>","null","html-keyboard-response","31","111827","0.0-9.0-0.11","bxnukj","Fri Feb 11 2022 08:39:57 GMT+0100 (CET)","2022","2","11","8","39","57","lola","22","female","right","50","8","12","0","11","","","","","fixation","","","",""
"1119","img/image_stim_f.png","70","image-keyboard-response","32","112948","0.0-9.0-1.11","bxnukj","Fri Feb 11 2022 08:39:57 GMT+0100 (CET)","2022","2","11","8","39","57","lola","22","female","right","50","8","12","0","11","","","","","test","fear","fear","f","true"
"null","<div style=""font-size:60px;"">+</div>","null","html-keyboard-response","33","113705","0.0-9.0-0.12","bxnukj","Fri Feb 11 2022 08:39:57 GMT+0100 (CET)","2022","2","11","8","39","57","lola","22","female","right","50","8","12","0","11","","","","","fixation","","","",""
"1038","img/image_stim_h.png","72","image-keyboard-response","34","114745","0.0-9.0-1.12","bxnukj","Fri Feb 11 2022 08:39:57 GMT+0100 (CET)","2022","2","11","8","39","57","lola","22","female","right","50","8","12","0","11","","","","","test","happy","happy","h","true"
"null","<div style=""font-size:60px;"">+</div>","null","html-keyboard-response","35","115001","0.0-9.0-0.13","bxnukj","Fri Feb 11 2022 08:39:57 GMT+0100 (CET)","2022","2","11","8","39","57","lola","22","female","right","50","8","12","0","11","","","","","fixation","","","",""
"542","img/image_stim_f.png","70","image-keyboard-response","36","115545","0.0-9.0-1.13","bxnukj","Fri Feb 11 2022 08:39:57 GMT+0100 (CET)","2022","2","11","8","39","57","lola","22","female","right","50","8","12","0","11","","","","","test","fear","fear","f","true"
"null","<div style=""font-size:60px;"">+</div>","null","html-keyboard-response","37","117302","0.0-9.0-0.14","bxnukj","Fri Feb 11 2022 08:39:57 GMT+0100 (CET)","2022","2","11","8","39","57","lola","22","female","right","50","8","12","0","11","","","","","fixation","","","",""
"783","img/image_stim_f_stroop.png","70","image-keyboard-response","38","118086","0.0-9.0-1.14","bxnukj","Fri Feb 11 2022 08:39:57 GMT+0100 (CET)","2022","2","11","8","39","57","lola","22","female","right","50","8","12","0","11","","","","","test","fear","happy","f","true"
"null","<div style=""font-size:60px;"">+</div>","null","html-keyboard-response","39","118342","0.0-9.0-0.15","bxnukj","Fri Feb 11 2022 08:39:57 GMT+0100 (CET)","2022","2","11","8","39","57","lola","22","female","right","50","8","12","0","11","","","","","fixation","","","",""
"670","img/image_stim_h_stroop.png","72","image-keyboard-response","40","119013","0.0-9.0-1.15","bxnukj","Fri Feb 11 2022 08:39:57 GMT+0100 (CET)","2022","2","11","8","39","57","lola","22","female","right","50","8","12","0","11","","","","","test","happy","fear","h","true"
"null","<div style=""font-size:60px;"">+</div>","null","html-keyboard-response","41","119271","0.0-9.0-0.16","bxnukj","Fri Feb 11 2022 08:39:57 GMT+0100 (CET)","2022","2","11","8","39","57","lola","22","female","right","50","8","12","0","11","","","","","fixation","","","",""
"783.0000000000146","img/image_stim_f_stroop.png","70","image-keyboard-response","42","120056","0.0-9.0-1.16","bxnukj","Fri Feb 11 2022 08:39:57 GMT+0100 (CET)","2022","2","11","8","39","57","lola","22","female","right","50","8","12","0","11","","","","","test","fear","happy","f","true"
"null","<div style=""font-size:60px;"">+</div>","null","html-keyboard-response","43","121062","0.0-9.0-0.17","bxnukj","Fri Feb 11 2022 08:39:57 GMT+0100 (CET)","2022","2","11","8","39","57","lola","22","female","right","50","8","12","0","11","","","","","fixation","","","",""
"692","img/image_stim_h_stroop.png","72","image-keyboard-response","44","121756","0.0-9.0-1.17","bxnukj","Fri Feb 11 2022 08:39:57 GMT+0100 (CET)","2022","2","11","8","39","57","lola","22","female","right","50","8","12","0","11","","","","","test","happy","fear","h","true"
"null","<div style=""font-size:60px;"">+</div>","null","html-keyboard-response","45","122262","0.0-9.0-0.18","bxnukj","Fri Feb 11 2022 08:39:57 GMT+0100 (CET)","2022","2","11","8","39","57","lola","22","female","right","50","8","12","0","11","","","","","fixation","","","",""
"833","img/image_stim_f.png","70","image-keyboard-response","46","123096","0.0-9.0-1.18","bxnukj","Fri Feb 11 2022 08:39:57 GMT+0100 (CET)","2022","2","11","8","39","57","lola","22","female","right","50","8","12","0","11","","","","","test","fear","fear","f","true"
"null","<div style=""font-size:60px;"">+</div>","null","html-keyboard-response","47","124602","0.0-9.0-0.19","bxnukj","Fri Feb 11 2022 08:39:57 GMT+0100 (CET)","2022","2","11","8","39","57","lola","22","female","right","50","8","12","0","11","","","","","fixation","","","",""
"789","img/image_stim_h.png","72","image-keyboard-response","48","125392","0.0-9.0-1.19","bxnukj","Fri Feb 11 2022 08:39:57 GMT+0100 (CET)","2022","2","11","8","39","57","lola","22","female","right","50","8","12","0","11","","","","","test","happy","happy","h","true"
"null","<div style=""font-size:60px;"">+</div>","null","html-keyboard-response","49","125902","0.0-9.0-0.20","bxnukj","Fri Feb 11 2022 08:39:57 GMT+0100 (CET)","2022","2","11","8","39","57","lola","22","female","right","50","8","12","0","11","","","","","fixation","","","",""
"1018.9999999999854","img/image_stim_h_stroop.png","72","image-keyboard-response","50","126923","0.0-9.0-1.20","bxnukj","Fri Feb 11 2022 08:39:57 GMT+0100 (CET)","2022","2","11","8","39","57","lola","22","female","right","50","8","12","0","11","","","","","test","happy","fear","h","true"
"null","<div style=""font-size:60px;"">+</div>","null","html-keyboard-response","51","127431","0.0-9.0-0.21","bxnukj","Fri Feb 11 2022 08:39:57 GMT+0100 (CET)","2022","2","11","8","39","57","lola","22","female","right","50","8","12","0","11","","","","","fixation","","","",""
"794.0000000000146","img/image_stim_f_stroop.png","70","image-keyboard-response","52","128226","0.0-9.0-1.21","bxnukj","Fri Feb 11 2022 08:39:57 GMT+0100 (CET)","2022","2","11","8","39","57","lola","22","female","right","50","8","12","0","11","","","","","test","fear","happy","f","true"
"null","<div style=""font-size:60px;"">+</div>","null","html-keyboard-response","53","130234","0.0-9.0-0.22","bxnukj","Fri Feb 11 2022 08:39:57 GMT+0100 (CET)","2022","2","11","8","39","57","lola","22","female","right","50","8","12","0","11","","","","","fixation","","","",""
"650","img/image_stim_f.png","70","image-keyboard-response","54","130887","0.0-9.0-1.22","bxnukj","Fri Feb 11 2022 08:39:57 GMT+0100 (CET)","2022","2","11","8","39","57","lola","22","female","right","50","8","12","0","11","","","","","test","fear","fear","f","true"
"null","<div style=""font-size:60px;"">+</div>","null","html-keyboard-response","55","131395","0.0-9.0-0.23","bxnukj","Fri Feb 11 2022 08:39:57 GMT+0100 (CET)","2022","2","11","8","39","57","lola","22","female","right","50","8","12","0","11","","","","","fixation","","","",""
"750","img/image_stim_h.png","72","image-keyboard-response","56","132147","0.0-9.0-1.23","bxnukj","Fri Feb 11 2022 08:39:57 GMT+0100 (CET)","2022","2","11","8","39","57","lola","22","female","right","50","8","12","0","11","","","","","test","happy","happy","h","true"
"null","<div style=""font-size:60px;"">+</div>","null","html-keyboard-response","57","134159","0.0-9.0-0.24","bxnukj","Fri Feb 11 2022 08:39:57 GMT+0100 (CET)","2022","2","11","8","39","57","lola","22","female","right","50","8","12","0","11","","","","","fixation","","","",""
"746","img/image_stim_h_stroop.png","72","image-keyboard-response","58","134906","0.0-9.0-1.24","bxnukj","Fri Feb 11 2022 08:39:57 GMT+0100 (CET)","2022","2","11","8","39","57","lola","22","female","right","50","8","12","0","11","","","","","test","happy","fear","h","true"
"null","<div style=""font-size:60px;"">+</div>","null","html-keyboard-response","59","135660","0.0-9.0-0.25","bxnukj","Fri Feb 11 2022 08:39:57 GMT+0100 (CET)","2022","2","11","8","39","57","lola","22","female","right","50","8","12","0","11","","","","","fixation","","","",""
"593","img/image_stim_h.png","72","image-keyboard-response","60","136254","0.0-9.0-1.25","bxnukj","Fri Feb 11 2022 08:39:57 GMT+0100 (CET)","2022","2","11","8","39","57","lola","22","female","right","50","8","12","0","11","","","","","test","happy","happy","h","true"
"null","<div style=""font-size:60px;"">+</div>","null","html-keyboard-response","61","137760","0.0-9.0-0.26","bxnukj","Fri Feb 11 2022 08:39:57 GMT+0100 (CET)","2022","2","11","8","39","57","lola","22","female","right","50","8","12","0","11","","","","","fixation","","","",""
"575","img/image_stim_f_stroop.png","70","image-keyboard-response","62","138336","0.0-9.0-1.26","bxnukj","Fri Feb 11 2022 08:39:57 GMT+0100 (CET)","2022","2","11","8","39","57","lola","22","female","right","50","8","12","0","11","","","","","test","fear","happy","f","true"
"null","<div style=""font-size:60px;"">+</div>","null","html-keyboard-response","63","138592","0.0-9.0-0.27","bxnukj","Fri Feb 11 2022 08:39:57 GMT+0100 (CET)","2022","2","11","8","39","57","lola","22","female","right","50","8","12","0","11","","","","","fixation","","","",""
"856","img/image_stim_f.png","70","image-keyboard-response","64","139449","0.0-9.0-1.27","bxnukj","Fri Feb 11 2022 08:39:57 GMT+0100 (CET)","2022","2","11","8","39","57","lola","22","female","right","50","8","12","0","11","","","","","test","fear","fear","f","true"
"null","<div style=""font-size:60px;"">+</div>","null","html-keyboard-response","65","139703","0.0-9.0-0.28","bxnukj","Fri Feb 11 2022 08:39:57 GMT+0100 (CET)","2022","2","11","8","39","57","lola","22","female","right","50","8","12","0","11","","","","","fixation","","","",""
"735","img/image_stim_f.png","70","image-keyboard-response","66","140439","0.0-9.0-1.28","bxnukj","Fri Feb 11 2022 08:39:57 GMT+0100 (CET)","2022","2","11","8","39","57","lola","22","female","right","50","8","12","0","11","","","","","test","fear","fear","f","true"
"null","<div style=""font-size:60px;"">+</div>","null","html-keyboard-response","67","141694","0.0-9.0-0.29","bxnukj","Fri Feb 11 2022 08:39:57 GMT+0100 (CET)","2022","2","11","8","39","57","lola","22","female","right","50","8","12","0","11","","","","","fixation","","","",""
"737","img/image_stim_f_stroop.png","70","image-keyboard-response","68","142433","0.0-9.0-1.29","bxnukj","Fri Feb 11 2022 08:39:57 GMT+0100 (CET)","2022","2","11","8","39","57","lola","22","female","right","50","8","12","0","11","","","","","test","fear","happy","f","true"
"null","<div style=""font-size:60px;"">+</div>","null","html-keyboard-response","69","144189","0.0-9.0-0.30","bxnukj","Fri Feb 11 2022 08:39:57 GMT+0100 (CET)","2022","2","11","8","39","57","lola","22","female","right","50","8","12","0","11","","","","","fixation","","","",""
"743","img/image_stim_h.png","72","image-keyboard-response","70","144933","0.0-9.0-1.30","bxnukj","Fri Feb 11 2022 08:39:57 GMT+0100 (CET)","2022","2","11","8","39","57","lola","22","female","right","50","8","12","0","11","","","","","test","happy","happy","h","true"
"null","<div style=""font-size:60px;"">+</div>","null","html-keyboard-response","71","145940","0.0-9.0-0.31","bxnukj","Fri Feb 11 2022 08:39:57 GMT+0100 (CET)","2022","2","11","8","39","57","lola","22","female","right","50","8","12","0","11","","","","","fixation","","","",""
"1050","img/image_stim_h_stroop.png","72","image-keyboard-response","72","146991","0.0-9.0-1.31","bxnukj","Fri Feb 11 2022 08:39:57 GMT+0100 (CET)","2022","2","11","8","39","57","lola","22","female","right","50","8","12","0","11","","","","","test","happy","fear","h","true"
"null","<div style=""font-size:60px;"">+</div>","null","html-keyboard-response","73","148996","0.0-9.0-0.32","bxnukj","Fri Feb 11 2022 08:39:57 GMT+0100 (CET)","2022","2","11","8","39","57","lola","22","female","right","50","8","12","0","11","","","","","fixation","","","",""
"667","img/image_stim_f_stroop.png","70","image-keyboard-response","74","149666","0.0-9.0-1.32","bxnukj","Fri Feb 11 2022 08:39:57 GMT+0100 (CET)","2022","2","11","8","39","57","lola","22","female","right","50","8","12","0","11","","","","","test","fear","happy","f","true"
"null","<div style=""font-size:60px;"">+</div>","null","html-keyboard-response","75","150672","0.0-9.0-0.33","bxnukj","Fri Feb 11 2022 08:39:57 GMT+0100 (CET)","2022","2","11","8","39","57","lola","22","female","right","50","8","12","0","11","","","","","fixation","","","",""
"630","img/image_stim_f.png","70","image-keyboard-response","76","151304","0.0-9.0-1.33","bxnukj","Fri Feb 11 2022 08:39:57 GMT+0100 (CET)","2022","2","11","8","39","57","lola","22","female","right","50","8","12","0","11","","","","","test","fear","fear","f","true"
"null","<div style=""font-size:60px;"">+</div>","null","html-keyboard-response","77","153309","0.0-9.0-0.34","bxnukj","Fri Feb 11 2022 08:39:57 GMT+0100 (CET)","2022","2","11","8","39","57","lola","22","female","right","50","8","12","0","11","","","","","fixation","","","",""
"1291","img/image_stim_h_stroop.png","72","image-keyboard-response","78","154601","0.0-9.0-1.34","bxnukj","Fri Feb 11 2022 08:39:57 GMT+0100 (CET)","2022","2","11","8","39","57","lola","22","female","right","50","8","12","0","11","","","","","test","happy","fear","h","true"
"null","<div style=""font-size:60px;"">+</div>","null","html-keyboard-response","79","155357","0.0-9.0-0.35","bxnukj","Fri Feb 11 2022 08:39:57 GMT+0100 (CET)","2022","2","11","8","39","57","lola","22","female","right","50","8","12","0","11","","","","","fixation","","","",""
"1890.999999999971","img/image_stim_h.png","72","image-keyboard-response","80","157249","0.0-9.0-1.35","bxnukj","Fri Feb 11 2022 08:39:57 GMT+0100 (CET)","2022","2","11","8","39","57","lola","22","female","right","50","8","12","0","11","","","","","test","happy","happy","h","true"
