"rt","stimulus","key_press","trial_type","trial_index","time_elapsed","internal_node_id","exp_id","Time","year","month","date","hour","minute","seconds","id","age","Gender","Handedness","mood","fresh","hunger","H_since_Sleep","H_since_Eat","responses","question_order","slider_start","response","test_part","face","word","correct_response","correct"
"39621","<p>Welcome to this experiment on daily rhythms and cognition.</p><p>First you will be asked some questions about yourself.</p><p>Then a short experiment will measure your response time.</p><p>Take the test at different times of the day/night.</p><p>The test is anonymous, but comparing your data across time is important.</p><p>Therefore, please make up and remember a personal ID (two letters+ two numbers).</p><p>Use this ID whenever taking the test.</p><p><strong>Press any key to begin.</strong></p>","32","html-keyboard-response","0","39623","0.0-0.0","80hplg","Tue Feb 16 2021 16:23:37 GMT+0900 (KST)","2021","2","16","16","23","37","cs12","21, 20","female","right","17","33","29","5","4","","","","","","","","",""
"41585","","","survey-text","1","81224","0.0-1.0","80hplg","Tue Feb 16 2021 16:23:37 GMT+0900 (KST)","2021","2","16","16","23","37","cs12","21, 20","female","right","17","33","29","5","4","{""Q0"":""cs12""}","","","","","","","",""
"793168","","","survey-text","2","874403","0.0-2.0","80hplg","Tue Feb 16 2021 16:23:37 GMT+0900 (KST)","2021","2","16","16","23","37","cs12","21, 20","female","right","17","33","29","5","4","{""Q0"":""21, 20""}","","","","","","","",""
"7122.000000000116","","","survey-multi-select","3","881528","0.0-3.0","80hplg","Tue Feb 16 2021 16:23:37 GMT+0900 (KST)","2021","2","16","16","23","37","cs12","21, 20","female","right","17","33","29","5","4","{""Gender"":[""female""],""Hand"":[""right""]}","[0,1]","","","","","","",""
"11177","<p>How Sad/Angry or Happy are you right now?</p>","","html-slider-response","4","892708","0.0-4.0","80hplg","Tue Feb 16 2021 16:23:37 GMT+0900 (KST)","2021","2","16","16","23","37","cs12","21, 20","female","right","17","33","29","5","4","","","50","17","","","","",""
"8322","<p>How Tired/Sleepy/Distracted or Fresh/Awake/Alert are you right now?</p>","","html-slider-response","5","901032","0.0-5.0","80hplg","Tue Feb 16 2021 16:23:37 GMT+0900 (KST)","2021","2","16","16","23","37","cs12","21, 20","female","right","17","33","29","5","4","","","50","33","","","","",""
"5646.999999999884","<p>How Hungry or Satiated are you right now?</p>","","html-slider-response","6","906680","0.0-6.0","80hplg","Tue Feb 16 2021 16:23:37 GMT+0900 (KST)","2021","2","16","16","23","37","cs12","21, 20","female","right","17","33","29","5","4","","","50","29","","","","",""
"66816.99999999988","","","survey-multi-select","7","973509","0.0-7.0","80hplg","Tue Feb 16 2021 16:23:37 GMT+0900 (KST)","2021","2","16","16","23","37","cs12","21, 20","female","right","17","33","29","5","4","{""Sleep"":[""5""],""Eat"":[""4""]}","[0,1]","","","","","","",""
"55354.99999999988","<p>In this experiment, a face and a word will appear in the center of the screen.</p><p>If the face is <strong>happy</strong>, press the letter <strong>H</strong> with <strong>right</strong> index finger.</p><p>If the face is <strong>fearful</strong>, press the letter <strong>F</strong> with <strong>left</strong> index finger.</p><p><strong>Ignore the written words</strong>. Respond as fast as possible while being correct. </p><div style='width: 900px;'><div style='float: left;'><img src='img/stimuli_stroop_happy.png'></img><p class='small'><strong>Press the H key for happy faces</strong></p></div><div class='float: right;'><img src='img/stimuli_stroop_fear.png'></img><p class='small'><strong>Press the F key for faces with fear</strong></p></div></div><p>If the screen turns blank, press <strong>SPACE</strong></p><p><strong>Press any key to begin.</strong></p>","32","html-keyboard-response","8","1028867","0.0-8.0","80hplg","Tue Feb 16 2021 16:23:37 GMT+0900 (KST)","2021","2","16","16","23","37","cs12","21, 20","female","right","17","33","29","5","4","","","","","","","","",""
"null","<div style=""font-size:60px;"">+</div>","null","html-keyboard-response","9","1031869","0.0-9.0-0.0","80hplg","Tue Feb 16 2021 16:23:37 GMT+0900 (KST)","2021","2","16","16","23","37","cs12","21, 20","female","right","17","33","29","5","4","","","","","fixation","","","",""
"3083.0000000001164","img/image_stim_f.png","70","image-keyboard-response","10","1034956","0.0-9.0-1.0","80hplg","Tue Feb 16 2021 16:23:37 GMT+0900 (KST)","2021","2","16","16","23","37","cs12","21, 20","female","right","17","33","29","5","4","","","","","test","fear","fear","f","true"
"null","<div style=""font-size:60px;"">+</div>","null","html-keyboard-response","11","1036960","0.0-9.0-0.1","80hplg","Tue Feb 16 2021 16:23:37 GMT+0900 (KST)","2021","2","16","16","23","37","cs12","21, 20","female","right","17","33","29","5","4","","","","","fixation","","","",""
"1307","img/image_stim_f_stroop.png","70","image-keyboard-response","12","1038269","0.0-9.0-1.1","80hplg","Tue Feb 16 2021 16:23:37 GMT+0900 (KST)","2021","2","16","16","23","37","cs12","21, 20","female","right","17","33","29","5","4","","","","","test","fear","happy","f","true"
"null","<div style=""font-size:60px;"">+</div>","null","html-keyboard-response","13","1038771","0.0-9.0-0.2","80hplg","Tue Feb 16 2021 16:23:37 GMT+0900 (KST)","2021","2","16","16","23","37","cs12","21, 20","female","right","17","33","29","5","4","","","","","fixation","","","",""
"780","img/image_stim_h.png","72","image-keyboard-response","14","1039554","0.0-9.0-1.2","80hplg","Tue Feb 16 2021 16:23:37 GMT+0900 (KST)","2021","2","16","16","23","37","cs12","21, 20","female","right","17","33","29","5","4","","","","","test","happy","happy","h","true"
"null","<div style=""font-size:60px;"">+</div>","null","html-keyboard-response","15","1040807","0.0-9.0-0.3","80hplg","Tue Feb 16 2021 16:23:37 GMT+0900 (KST)","2021","2","16","16","23","37","cs12","21, 20","female","right","17","33","29","5","4","","","","","fixation","","","",""
"942","img/image_stim_h_stroop.png","72","image-keyboard-response","16","1041750","0.0-9.0-1.3","80hplg","Tue Feb 16 2021 16:23:37 GMT+0900 (KST)","2021","2","16","16","23","37","cs12","21, 20","female","right","17","33","29","5","4","","","","","test","happy","fear","h","true"
"null","<div style=""font-size:60px;"">+</div>","null","html-keyboard-response","17","1043503","0.0-9.0-0.4","80hplg","Tue Feb 16 2021 16:23:37 GMT+0900 (KST)","2021","2","16","16","23","37","cs12","21, 20","female","right","17","33","29","5","4","","","","","fixation","","","",""
"633","img/image_stim_f_stroop.png","70","image-keyboard-response","18","1044137","0.0-9.0-1.4","80hplg","Tue Feb 16 2021 16:23:37 GMT+0900 (KST)","2021","2","16","16","23","37","cs12","21, 20","female","right","17","33","29","5","4","","","","","test","fear","happy","f","true"
"null","<div style=""font-size:60px;"">+</div>","null","html-keyboard-response","19","1046139","0.0-9.0-0.5","80hplg","Tue Feb 16 2021 16:23:37 GMT+0900 (KST)","2021","2","16","16","23","37","cs12","21, 20","female","right","17","33","29","5","4","","","","","fixation","","","",""
"532","img/image_stim_h.png","72","image-keyboard-response","20","1046673","0.0-9.0-1.5","80hplg","Tue Feb 16 2021 16:23:37 GMT+0900 (KST)","2021","2","16","16","23","37","cs12","21, 20","female","right","17","33","29","5","4","","","","","test","happy","happy","h","true"
"null","<div style=""font-size:60px;"">+</div>","null","html-keyboard-response","21","1048175","0.0-9.0-0.6","80hplg","Tue Feb 16 2021 16:23:37 GMT+0900 (KST)","2021","2","16","16","23","37","cs12","21, 20","female","right","17","33","29","5","4","","","","","fixation","","","",""
"685","img/image_stim_f.png","70","image-keyboard-response","22","1048862","0.0-9.0-1.6","80hplg","Tue Feb 16 2021 16:23:37 GMT+0900 (KST)","2021","2","16","16","23","37","cs12","21, 20","female","right","17","33","29","5","4","","","","","test","fear","fear","f","true"
"null","<div style=""font-size:60px;"">+</div>","null","html-keyboard-response","23","1050115","0.0-9.0-0.7","80hplg","Tue Feb 16 2021 16:23:37 GMT+0900 (KST)","2021","2","16","16","23","37","cs12","21, 20","female","right","17","33","29","5","4","","","","","fixation","","","",""
"666","img/image_stim_h_stroop.png","72","image-keyboard-response","24","1050783","0.0-9.0-1.7","80hplg","Tue Feb 16 2021 16:23:37 GMT+0900 (KST)","2021","2","16","16","23","37","cs12","21, 20","female","right","17","33","29","5","4","","","","","test","happy","fear","h","true"
"null","<div style=""font-size:60px;"">+</div>","null","html-keyboard-response","25","1051786","0.0-9.0-0.8","80hplg","Tue Feb 16 2021 16:23:37 GMT+0900 (KST)","2021","2","16","16","23","37","cs12","21, 20","female","right","17","33","29","5","4","","","","","fixation","","","",""
"492","img/image_stim_h_stroop.png","72","image-keyboard-response","26","1052280","0.0-9.0-1.8","80hplg","Tue Feb 16 2021 16:23:37 GMT+0900 (KST)","2021","2","16","16","23","37","cs12","21, 20","female","right","17","33","29","5","4","","","","","test","happy","fear","h","true"
"null","<div style=""font-size:60px;"">+</div>","null","html-keyboard-response","27","1052533","0.0-9.0-0.9","80hplg","Tue Feb 16 2021 16:23:37 GMT+0900 (KST)","2021","2","16","16","23","37","cs12","21, 20","female","right","17","33","29","5","4","","","","","fixation","","","",""
"565","img/image_stim_f_stroop.png","70","image-keyboard-response","28","1053100","0.0-9.0-1.9","80hplg","Tue Feb 16 2021 16:23:37 GMT+0900 (KST)","2021","2","16","16","23","37","cs12","21, 20","female","right","17","33","29","5","4","","","","","test","fear","happy","f","true"
"null","<div style=""font-size:60px;"">+</div>","null","html-keyboard-response","29","1055103","0.0-9.0-0.10","80hplg","Tue Feb 16 2021 16:23:37 GMT+0900 (KST)","2021","2","16","16","23","37","cs12","21, 20","female","right","17","33","29","5","4","","","","","fixation","","","",""
"509","img/image_stim_h.png","72","image-keyboard-response","30","1055614","0.0-9.0-1.10","80hplg","Tue Feb 16 2021 16:23:37 GMT+0900 (KST)","2021","2","16","16","23","37","cs12","21, 20","female","right","17","33","29","5","4","","","","","test","happy","happy","h","true"
"null","<div style=""font-size:60px;"">+</div>","null","html-keyboard-response","31","1057617","0.0-9.0-0.11","80hplg","Tue Feb 16 2021 16:23:37 GMT+0900 (KST)","2021","2","16","16","23","37","cs12","21, 20","female","right","17","33","29","5","4","","","","","fixation","","","",""
"664.9999999997672","img/image_stim_f.png","70","image-keyboard-response","32","1058284","0.0-9.0-1.11","80hplg","Tue Feb 16 2021 16:23:37 GMT+0900 (KST)","2021","2","16","16","23","37","cs12","21, 20","female","right","17","33","29","5","4","","","","","test","fear","fear","f","true"
"null","<div style=""font-size:60px;"">+</div>","null","html-keyboard-response","33","1060037","0.0-9.0-0.12","80hplg","Tue Feb 16 2021 16:23:37 GMT+0900 (KST)","2021","2","16","16","23","37","cs12","21, 20","female","right","17","33","29","5","4","","","","","fixation","","","",""
"598","img/image_stim_f_stroop.png","72","image-keyboard-response","34","1060636","0.0-9.0-1.12","80hplg","Tue Feb 16 2021 16:23:37 GMT+0900 (KST)","2021","2","16","16","23","37","cs12","21, 20","female","right","17","33","29","5","4","","","","","test","fear","happy","f","false"
"null","<div style=""font-size:60px;"">+</div>","null","html-keyboard-response","35","1062389","0.0-9.0-0.13","80hplg","Tue Feb 16 2021 16:23:37 GMT+0900 (KST)","2021","2","16","16","23","37","cs12","21, 20","female","right","17","33","29","5","4","","","","","fixation","","","",""
"639","img/image_stim_h_stroop.png","72","image-keyboard-response","36","1063029","0.0-9.0-1.13","80hplg","Tue Feb 16 2021 16:23:37 GMT+0900 (KST)","2021","2","16","16","23","37","cs12","21, 20","female","right","17","33","29","5","4","","","","","test","happy","fear","h","true"
"null","<div style=""font-size:60px;"">+</div>","null","html-keyboard-response","37","1064032","0.0-9.0-0.14","80hplg","Tue Feb 16 2021 16:23:37 GMT+0900 (KST)","2021","2","16","16","23","37","cs12","21, 20","female","right","17","33","29","5","4","","","","","fixation","","","",""
"910","img/image_stim_f.png","70","image-keyboard-response","38","1064944","0.0-9.0-1.14","80hplg","Tue Feb 16 2021 16:23:37 GMT+0900 (KST)","2021","2","16","16","23","37","cs12","21, 20","female","right","17","33","29","5","4","","","","","test","fear","fear","f","true"
"null","<div style=""font-size:60px;"">+</div>","null","html-keyboard-response","39","1065196","0.0-9.0-0.15","80hplg","Tue Feb 16 2021 16:23:37 GMT+0900 (KST)","2021","2","16","16","23","37","cs12","21, 20","female","right","17","33","29","5","4","","","","","fixation","","","",""
"621","img/image_stim_h.png","72","image-keyboard-response","40","1065817","0.0-9.0-1.15","80hplg","Tue Feb 16 2021 16:23:37 GMT+0900 (KST)","2021","2","16","16","23","37","cs12","21, 20","female","right","17","33","29","5","4","","","","","test","happy","happy","h","true"
"null","<div style=""font-size:60px;"">+</div>","null","html-keyboard-response","41","1066320","0.0-9.0-0.16","80hplg","Tue Feb 16 2021 16:23:37 GMT+0900 (KST)","2021","2","16","16","23","37","cs12","21, 20","female","right","17","33","29","5","4","","","","","fixation","","","",""
"1633.0000000002328","img/image_stim_h_stroop.png","72","image-keyboard-response","42","1067955","0.0-9.0-1.16","80hplg","Tue Feb 16 2021 16:23:37 GMT+0900 (KST)","2021","2","16","16","23","37","cs12","21, 20","female","right","17","33","29","5","4","","","","","test","happy","fear","h","true"
"null","<div style=""font-size:60px;"">+</div>","null","html-keyboard-response","43","1069708","0.0-9.0-0.17","80hplg","Tue Feb 16 2021 16:23:37 GMT+0900 (KST)","2021","2","16","16","23","37","cs12","21, 20","female","right","17","33","29","5","4","","","","","fixation","","","",""
"868","img/image_stim_f_stroop.png","70","image-keyboard-response","44","1070576","0.0-9.0-1.17","80hplg","Tue Feb 16 2021 16:23:37 GMT+0900 (KST)","2021","2","16","16","23","37","cs12","21, 20","female","right","17","33","29","5","4","","","","","test","fear","happy","f","true"
"null","<div style=""font-size:60px;"">+</div>","null","html-keyboard-response","45","1071830","0.0-9.0-0.18","80hplg","Tue Feb 16 2021 16:23:37 GMT+0900 (KST)","2021","2","16","16","23","37","cs12","21, 20","female","right","17","33","29","5","4","","","","","fixation","","","",""
"723","img/image_stim_f.png","70","image-keyboard-response","46","1072554","0.0-9.0-1.18","80hplg","Tue Feb 16 2021 16:23:37 GMT+0900 (KST)","2021","2","16","16","23","37","cs12","21, 20","female","right","17","33","29","5","4","","","","","test","fear","fear","f","true"
"null","<div style=""font-size:60px;"">+</div>","null","html-keyboard-response","47","1074057","0.0-9.0-0.19","80hplg","Tue Feb 16 2021 16:23:37 GMT+0900 (KST)","2021","2","16","16","23","37","cs12","21, 20","female","right","17","33","29","5","4","","","","","fixation","","","",""
"928","img/image_stim_h.png","72","image-keyboard-response","48","1074987","0.0-9.0-1.19","80hplg","Tue Feb 16 2021 16:23:37 GMT+0900 (KST)","2021","2","16","16","23","37","cs12","21, 20","female","right","17","33","29","5","4","","","","","test","happy","happy","h","true"
"null","<div style=""font-size:60px;"">+</div>","null","html-keyboard-response","49","1076490","0.0-9.0-0.20","80hplg","Tue Feb 16 2021 16:23:37 GMT+0900 (KST)","2021","2","16","16","23","37","cs12","21, 20","female","right","17","33","29","5","4","","","","","fixation","","","",""
"794","img/image_stim_f_stroop.png","70","image-keyboard-response","50","1077285","0.0-9.0-1.20","80hplg","Tue Feb 16 2021 16:23:37 GMT+0900 (KST)","2021","2","16","16","23","37","cs12","21, 20","female","right","17","33","29","5","4","","","","","test","fear","happy","f","true"
"null","<div style=""font-size:60px;"">+</div>","null","html-keyboard-response","51","1079039","0.0-9.0-0.21","80hplg","Tue Feb 16 2021 16:23:37 GMT+0900 (KST)","2021","2","16","16","23","37","cs12","21, 20","female","right","17","33","29","5","4","","","","","fixation","","","",""
"581","img/image_stim_h.png","72","image-keyboard-response","52","1079621","0.0-9.0-1.21","80hplg","Tue Feb 16 2021 16:23:37 GMT+0900 (KST)","2021","2","16","16","23","37","cs12","21, 20","female","right","17","33","29","5","4","","","","","test","happy","happy","h","true"
"null","<div style=""font-size:60px;"">+</div>","null","html-keyboard-response","53","1081125","0.0-9.0-0.22","80hplg","Tue Feb 16 2021 16:23:37 GMT+0900 (KST)","2021","2","16","16","23","37","cs12","21, 20","female","right","17","33","29","5","4","","","","","fixation","","","",""
"961","img/image_stim_h_stroop.png","72","image-keyboard-response","54","1082088","0.0-9.0-1.22","80hplg","Tue Feb 16 2021 16:23:37 GMT+0900 (KST)","2021","2","16","16","23","37","cs12","21, 20","female","right","17","33","29","5","4","","","","","test","happy","fear","h","true"
"null","<div style=""font-size:60px;"">+</div>","null","html-keyboard-response","55","1082340","0.0-9.0-0.23","80hplg","Tue Feb 16 2021 16:23:37 GMT+0900 (KST)","2021","2","16","16","23","37","cs12","21, 20","female","right","17","33","29","5","4","","","","","fixation","","","",""
"675","img/image_stim_f.png","70","image-keyboard-response","56","1083018","0.0-9.0-1.23","80hplg","Tue Feb 16 2021 16:23:37 GMT+0900 (KST)","2021","2","16","16","23","37","cs12","21, 20","female","right","17","33","29","5","4","","","","","test","fear","fear","f","true"
"null","<div style=""font-size:60px;"">+</div>","null","html-keyboard-response","57","1084771","0.0-9.0-0.24","80hplg","Tue Feb 16 2021 16:23:37 GMT+0900 (KST)","2021","2","16","16","23","37","cs12","21, 20","female","right","17","33","29","5","4","","","","","fixation","","","",""
"766","img/image_stim_h_stroop.png","72","image-keyboard-response","58","1085538","0.0-9.0-1.24","80hplg","Tue Feb 16 2021 16:23:37 GMT+0900 (KST)","2021","2","16","16","23","37","cs12","21, 20","female","right","17","33","29","5","4","","","","","test","happy","fear","h","true"
"null","<div style=""font-size:60px;"">+</div>","null","html-keyboard-response","59","1086291","0.0-9.0-0.25","80hplg","Tue Feb 16 2021 16:23:37 GMT+0900 (KST)","2021","2","16","16","23","37","cs12","21, 20","female","right","17","33","29","5","4","","","","","fixation","","","",""
"692","img/image_stim_f_stroop.png","70","image-keyboard-response","60","1086986","0.0-9.0-1.25","80hplg","Tue Feb 16 2021 16:23:37 GMT+0900 (KST)","2021","2","16","16","23","37","cs12","21, 20","female","right","17","33","29","5","4","","","","","test","fear","happy","f","true"
"null","<div style=""font-size:60px;"">+</div>","null","html-keyboard-response","61","1088239","0.0-9.0-0.26","80hplg","Tue Feb 16 2021 16:23:37 GMT+0900 (KST)","2021","2","16","16","23","37","cs12","21, 20","female","right","17","33","29","5","4","","","","","fixation","","","",""
"538","img/image_stim_h.png","72","image-keyboard-response","62","1088779","0.0-9.0-1.26","80hplg","Tue Feb 16 2021 16:23:37 GMT+0900 (KST)","2021","2","16","16","23","37","cs12","21, 20","female","right","17","33","29","5","4","","","","","test","happy","happy","h","true"
"null","<div style=""font-size:60px;"">+</div>","null","html-keyboard-response","63","1089282","0.0-9.0-0.27","80hplg","Tue Feb 16 2021 16:23:37 GMT+0900 (KST)","2021","2","16","16","23","37","cs12","21, 20","female","right","17","33","29","5","4","","","","","fixation","","","",""
"912","img/image_stim_f.png","70","image-keyboard-response","64","1090195","0.0-9.0-1.27","80hplg","Tue Feb 16 2021 16:23:37 GMT+0900 (KST)","2021","2","16","16","23","37","cs12","21, 20","female","right","17","33","29","5","4","","","","","test","fear","fear","f","true"
"null","<div style=""font-size:60px;"">+</div>","null","html-keyboard-response","65","1090949","0.0-9.0-0.28","80hplg","Tue Feb 16 2021 16:23:37 GMT+0900 (KST)","2021","2","16","16","23","37","cs12","21, 20","female","right","17","33","29","5","4","","","","","fixation","","","",""
"591","img/image_stim_h.png","72","image-keyboard-response","66","1091541","0.0-9.0-1.28","80hplg","Tue Feb 16 2021 16:23:37 GMT+0900 (KST)","2021","2","16","16","23","37","cs12","21, 20","female","right","17","33","29","5","4","","","","","test","happy","happy","h","true"
"null","<div style=""font-size:60px;"">+</div>","null","html-keyboard-response","67","1092044","0.0-9.0-0.29","80hplg","Tue Feb 16 2021 16:23:37 GMT+0900 (KST)","2021","2","16","16","23","37","cs12","21, 20","female","right","17","33","29","5","4","","","","","fixation","","","",""
"773","img/image_stim_f_stroop.png","70","image-keyboard-response","68","1092819","0.0-9.0-1.29","80hplg","Tue Feb 16 2021 16:23:37 GMT+0900 (KST)","2021","2","16","16","23","37","cs12","21, 20","female","right","17","33","29","5","4","","","","","test","fear","happy","f","true"
"null","<div style=""font-size:60px;"">+</div>","null","html-keyboard-response","69","1093822","0.0-9.0-0.30","80hplg","Tue Feb 16 2021 16:23:37 GMT+0900 (KST)","2021","2","16","16","23","37","cs12","21, 20","female","right","17","33","29","5","4","","","","","fixation","","","",""
"618","img/image_stim_f.png","70","image-keyboard-response","70","1094441","0.0-9.0-1.30","80hplg","Tue Feb 16 2021 16:23:37 GMT+0900 (KST)","2021","2","16","16","23","37","cs12","21, 20","female","right","17","33","29","5","4","","","","","test","fear","fear","f","true"
"null","<div style=""font-size:60px;"">+</div>","null","html-keyboard-response","71","1095444","0.0-9.0-0.31","80hplg","Tue Feb 16 2021 16:23:37 GMT+0900 (KST)","2021","2","16","16","23","37","cs12","21, 20","female","right","17","33","29","5","4","","","","","fixation","","","",""
"509","img/image_stim_h_stroop.png","72","image-keyboard-response","72","1095954","0.0-9.0-1.31","80hplg","Tue Feb 16 2021 16:23:37 GMT+0900 (KST)","2021","2","16","16","23","37","cs12","21, 20","female","right","17","33","29","5","4","","","","","test","happy","fear","h","true"
"null","<div style=""font-size:60px;"">+</div>","null","html-keyboard-response","73","1097458","0.0-9.0-0.32","80hplg","Tue Feb 16 2021 16:23:37 GMT+0900 (KST)","2021","2","16","16","23","37","cs12","21, 20","female","right","17","33","29","5","4","","","","","fixation","","","",""
"667","img/image_stim_f.png","70","image-keyboard-response","74","1098126","0.0-9.0-1.32","80hplg","Tue Feb 16 2021 16:23:37 GMT+0900 (KST)","2021","2","16","16","23","37","cs12","21, 20","female","right","17","33","29","5","4","","","","","test","fear","fear","f","true"
"null","<div style=""font-size:60px;"">+</div>","null","html-keyboard-response","75","1098879","0.0-9.0-0.33","80hplg","Tue Feb 16 2021 16:23:37 GMT+0900 (KST)","2021","2","16","16","23","37","cs12","21, 20","female","right","17","33","29","5","4","","","","","fixation","","","",""
"585.0000000002328","img/image_stim_h.png","72","image-keyboard-response","76","1099465","0.0-9.0-1.33","80hplg","Tue Feb 16 2021 16:23:37 GMT+0900 (KST)","2021","2","16","16","23","37","cs12","21, 20","female","right","17","33","29","5","4","","","","","test","happy","happy","h","true"
"null","<div style=""font-size:60px;"">+</div>","null","html-keyboard-response","77","1100719","0.0-9.0-0.34","80hplg","Tue Feb 16 2021 16:23:37 GMT+0900 (KST)","2021","2","16","16","23","37","cs12","21, 20","female","right","17","33","29","5","4","","","","","fixation","","","",""
"587","img/image_stim_h_stroop.png","72","image-keyboard-response","78","1101307","0.0-9.0-1.34","80hplg","Tue Feb 16 2021 16:23:37 GMT+0900 (KST)","2021","2","16","16","23","37","cs12","21, 20","female","right","17","33","29","5","4","","","","","test","happy","fear","h","true"
"null","<div style=""font-size:60px;"">+</div>","null","html-keyboard-response","79","1102061","0.0-9.0-0.35","80hplg","Tue Feb 16 2021 16:23:37 GMT+0900 (KST)","2021","2","16","16","23","37","cs12","21, 20","female","right","17","33","29","5","4","","","","","fixation","","","",""
"724","img/image_stim_f_stroop.png","70","image-keyboard-response","80","1102786","0.0-9.0-1.35","80hplg","Tue Feb 16 2021 16:23:37 GMT+0900 (KST)","2021","2","16","16","23","37","cs12","21, 20","female","right","17","33","29","5","4","","","","","test","fear","happy","f","true"
