"rt","stimulus","key_press","trial_type","trial_index","time_elapsed","internal_node_id","exp_id","Time","year","month","date","hour","minute","seconds","id","age","Gender","Handedness","mood","fresh","hunger","H_since_Sleep","H_since_Eat","responses","question_order","slider_start","response","test_part","face","word","correct_response","correct"
"31862.08499999975","<p>Welcome to this experiment on daily rhythms and cognition.</p><p>First you will be asked some questions about yourself.</p><p>Then a short experiment will measure your response time.</p><p>Take the test at different times of the day/night.</p><p>The test is anonymous, but comparing your data across time is important.</p><p>Therefore, please make up and remember a personal ID (two letters+ two numbers).</p><p>Use this ID whenever taking the test.</p><p><strong>Press any key to begin.</strong></p>","13","html-keyboard-response","0","31866","0.0-0.0","h4myoc","Tue Feb 16 2021 09:12:28 GMT+0100 (Centraleuropæisk normaltid)","2021","2","16","9","12","28","mg65","55","male","right","87","88","97","1","0","","","","","","","","",""
"6473.71000000021","","","survey-text","1","38343","0.0-1.0","h4myoc","Tue Feb 16 2021 09:12:28 GMT+0100 (Centraleuropæisk normaltid)","2021","2","16","9","12","28","mg65","55","male","right","87","88","97","1","0","{""Q0"":""mg65""}","","","","","","","",""
"5147.265000000516","","","survey-text","2","43495","0.0-2.0","h4myoc","Tue Feb 16 2021 09:12:28 GMT+0100 (Centraleuropæisk normaltid)","2021","2","16","9","12","28","mg65","55","male","right","87","88","97","1","0","{""Q0"":""55""}","","","","","","","",""
"5236.1149999997","","","survey-multi-select","3","48735","0.0-3.0","h4myoc","Tue Feb 16 2021 09:12:28 GMT+0100 (Centraleuropæisk normaltid)","2021","2","16","9","12","28","mg65","55","male","right","87","88","97","1","0","{""Gender"":[""male""],""Hand"":[""right""]}","[0,1]","","","","","","",""
"5413.514999999279","<p>How Sad/Angry or Happy are you right now?</p>","","html-slider-response","4","54151","0.0-4.0","h4myoc","Tue Feb 16 2021 09:12:28 GMT+0100 (Centraleuropæisk normaltid)","2021","2","16","9","12","28","mg65","55","male","right","87","88","97","1","0","","","50","87","","","","",""
"5581.4650000002075","<p>How Tired/Sleepy/Distracted or Fresh/Awake/Alert are you right now?</p>","","html-slider-response","5","59734","0.0-5.0","h4myoc","Tue Feb 16 2021 09:12:28 GMT+0100 (Centraleuropæisk normaltid)","2021","2","16","9","12","28","mg65","55","male","right","87","88","97","1","0","","","50","88","","","","",""
"4926.6850000003615","<p>How Hungry or Satiated are you right now?</p>","","html-slider-response","6","64662","0.0-6.0","h4myoc","Tue Feb 16 2021 09:12:28 GMT+0100 (Centraleuropæisk normaltid)","2021","2","16","9","12","28","mg65","55","male","right","87","88","97","1","0","","","50","97","","","","",""
"14003.635000000024","","","survey-multi-select","7","78680","0.0-7.0","h4myoc","Tue Feb 16 2021 09:12:28 GMT+0100 (Centraleuropæisk normaltid)","2021","2","16","9","12","28","mg65","55","male","right","87","88","97","1","0","{""Sleep"":[""1""],""Eat"":[""0""]}","[0,1]","","","","","","",""
"43832.014999999956","<p>In this experiment, a face and a word will appear in the center of the screen.</p><p>If the face is <strong>happy</strong>, press the letter <strong>H</strong> with <strong>right</strong> index finger.</p><p>If the face is <strong>fearful</strong>, press the letter <strong>F</strong> with <strong>left</strong> index finger.</p><p><strong>Ignore the written words</strong>. Respond as fast as possible while being correct. </p><div style='width: 900px;'><div style='float: left;'><img src='img/stimuli_stroop_happy.png'></img><p class='small'><strong>Press the H key for happy faces</strong></p></div><div class='float: right;'><img src='img/stimuli_stroop_fear.png'></img><p class='small'><strong>Press the F key for faces with fear</strong></p></div></div><p>If the screen turns blank, press <strong>SPACE</strong></p><p><strong>Press any key to begin.</strong></p>","13","html-keyboard-response","8","122513","0.0-8.0","h4myoc","Tue Feb 16 2021 09:12:28 GMT+0100 (Centraleuropæisk normaltid)","2021","2","16","9","12","28","mg65","55","male","right","87","88","97","1","0","","","","","","","","",""
"null","<div style=""font-size:60px;"">+</div>","null","html-keyboard-response","9","126518","0.0-9.0-0.0","h4myoc","Tue Feb 16 2021 09:12:28 GMT+0100 (Centraleuropæisk normaltid)","2021","2","16","9","12","28","mg65","55","male","right","87","88","97","1","0","","","","","fixation","","","",""
"3993.2500000004366","img/image_stim_h_stroop.png","72","image-keyboard-response","10","130522","0.0-9.0-1.0","h4myoc","Tue Feb 16 2021 09:12:28 GMT+0100 (Centraleuropæisk normaltid)","2021","2","16","9","12","28","mg65","55","male","right","87","88","97","1","0","","","","","test","happy","fear","h","true"
"null","<div style=""font-size:60px;"">+</div>","null","html-keyboard-response","11","132280","0.0-9.0-0.1","h4myoc","Tue Feb 16 2021 09:12:28 GMT+0100 (Centraleuropæisk normaltid)","2021","2","16","9","12","28","mg65","55","male","right","87","88","97","1","0","","","","","fixation","","","",""
"1858.7050000005693","img/image_stim_f_stroop.png","70","image-keyboard-response","12","134141","0.0-9.0-1.1","h4myoc","Tue Feb 16 2021 09:12:28 GMT+0100 (Centraleuropæisk normaltid)","2021","2","16","9","12","28","mg65","55","male","right","87","88","97","1","0","","","","","test","fear","happy","f","true"
"null","<div style=""font-size:60px;"">+</div>","null","html-keyboard-response","13","135894","0.0-9.0-0.2","h4myoc","Tue Feb 16 2021 09:12:28 GMT+0100 (Centraleuropæisk normaltid)","2021","2","16","9","12","28","mg65","55","male","right","87","88","97","1","0","","","","","fixation","","","",""
"1984.5000000004948","img/image_stim_h.png","72","image-keyboard-response","14","137880","0.0-9.0-1.2","h4myoc","Tue Feb 16 2021 09:12:28 GMT+0100 (Centraleuropæisk normaltid)","2021","2","16","9","12","28","mg65","55","male","right","87","88","97","1","0","","","","","test","happy","happy","h","true"
"null","<div style=""font-size:60px;"">+</div>","null","html-keyboard-response","15","139132","0.0-9.0-0.3","h4myoc","Tue Feb 16 2021 09:12:28 GMT+0100 (Centraleuropæisk normaltid)","2021","2","16","9","12","28","mg65","55","male","right","87","88","97","1","0","","","","","fixation","","","",""
"908.309999999794","img/image_stim_f.png","70","image-keyboard-response","16","140045","0.0-9.0-1.3","h4myoc","Tue Feb 16 2021 09:12:28 GMT+0100 (Centraleuropæisk normaltid)","2021","2","16","9","12","28","mg65","55","male","right","87","88","97","1","0","","","","","test","fear","fear","f","true"
"null","<div style=""font-size:60px;"">+</div>","null","html-keyboard-response","17","140551","0.0-9.0-0.4","h4myoc","Tue Feb 16 2021 09:12:28 GMT+0100 (Centraleuropæisk normaltid)","2021","2","16","9","12","28","mg65","55","male","right","87","88","97","1","0","","","","","fixation","","","",""
"3157.7850000003236","img/image_stim_h_stroop.png","72","image-keyboard-response","18","143712","0.0-9.0-1.4","h4myoc","Tue Feb 16 2021 09:12:28 GMT+0100 (Centraleuropæisk normaltid)","2021","2","16","9","12","28","mg65","55","male","right","87","88","97","1","0","","","","","test","happy","fear","h","true"
"null","<div style=""font-size:60px;"">+</div>","null","html-keyboard-response","19","145218","0.0-9.0-0.5","h4myoc","Tue Feb 16 2021 09:12:28 GMT+0100 (Centraleuropæisk normaltid)","2021","2","16","9","12","28","mg65","55","male","right","87","88","97","1","0","","","","","fixation","","","",""
"1037.5949999997683","img/image_stim_f.png","70","image-keyboard-response","20","146260","0.0-9.0-1.5","h4myoc","Tue Feb 16 2021 09:12:28 GMT+0100 (Centraleuropæisk normaltid)","2021","2","16","9","12","28","mg65","55","male","right","87","88","97","1","0","","","","","test","fear","fear","f","true"
"null","<div style=""font-size:60px;"">+</div>","null","html-keyboard-response","21","147766","0.0-9.0-0.6","h4myoc","Tue Feb 16 2021 09:12:28 GMT+0100 (Centraleuropæisk normaltid)","2021","2","16","9","12","28","mg65","55","male","right","87","88","97","1","0","","","","","fixation","","","",""
"1051.3700000001409","img/image_stim_h.png","72","image-keyboard-response","22","148820","0.0-9.0-1.6","h4myoc","Tue Feb 16 2021 09:12:28 GMT+0100 (Centraleuropæisk normaltid)","2021","2","16","9","12","28","mg65","55","male","right","87","88","97","1","0","","","","","test","happy","happy","h","true"
"null","<div style=""font-size:60px;"">+</div>","null","html-keyboard-response","23","149078","0.0-9.0-0.7","h4myoc","Tue Feb 16 2021 09:12:28 GMT+0100 (Centraleuropæisk normaltid)","2021","2","16","9","12","28","mg65","55","male","right","87","88","97","1","0","","","","","fixation","","","",""
"1408.4849999999278","img/image_stim_f_stroop.png","70","image-keyboard-response","24","150489","0.0-9.0-1.7","h4myoc","Tue Feb 16 2021 09:12:28 GMT+0100 (Centraleuropæisk normaltid)","2021","2","16","9","12","28","mg65","55","male","right","87","88","97","1","0","","","","","test","fear","happy","f","true"
"null","<div style=""font-size:60px;"">+</div>","null","html-keyboard-response","25","152494","0.0-9.0-0.8","h4myoc","Tue Feb 16 2021 09:12:28 GMT+0100 (Centraleuropæisk normaltid)","2021","2","16","9","12","28","mg65","55","male","right","87","88","97","1","0","","","","","fixation","","","",""
"1424.2450000001409","img/image_stim_h_stroop.png","72","image-keyboard-response","26","153921","0.0-9.0-1.8","h4myoc","Tue Feb 16 2021 09:12:28 GMT+0100 (Centraleuropæisk normaltid)","2021","2","16","9","12","28","mg65","55","male","right","87","88","97","1","0","","","","","test","happy","fear","h","true"
"null","<div style=""font-size:60px;"">+</div>","null","html-keyboard-response","27","154926","0.0-9.0-0.9","h4myoc","Tue Feb 16 2021 09:12:28 GMT+0100 (Centraleuropæisk normaltid)","2021","2","16","9","12","28","mg65","55","male","right","87","88","97","1","0","","","","","fixation","","","",""
"880.5000000002328","img/image_stim_f_stroop.png","70","image-keyboard-response","28","155808","0.0-9.0-1.9","h4myoc","Tue Feb 16 2021 09:12:28 GMT+0100 (Centraleuropæisk normaltid)","2021","2","16","9","12","28","mg65","55","male","right","87","88","97","1","0","","","","","test","fear","happy","f","true"
"null","<div style=""font-size:60px;"">+</div>","null","html-keyboard-response","29","157065","0.0-9.0-0.10","h4myoc","Tue Feb 16 2021 09:12:28 GMT+0100 (Centraleuropæisk normaltid)","2021","2","16","9","12","28","mg65","55","male","right","87","88","97","1","0","","","","","fixation","","","",""
"976.2799999998824","img/image_stim_f.png","70","image-keyboard-response","30","158044","0.0-9.0-1.10","h4myoc","Tue Feb 16 2021 09:12:28 GMT+0100 (Centraleuropæisk normaltid)","2021","2","16","9","12","28","mg65","55","male","right","87","88","97","1","0","","","","","test","fear","fear","f","true"
"null","<div style=""font-size:60px;"">+</div>","null","html-keyboard-response","31","160050","0.0-9.0-0.11","h4myoc","Tue Feb 16 2021 09:12:28 GMT+0100 (Centraleuropæisk normaltid)","2021","2","16","9","12","28","mg65","55","male","right","87","88","97","1","0","","","","","fixation","","","",""
"1031.7549999999756","img/image_stim_h.png","72","image-keyboard-response","32","161085","0.0-9.0-1.11","h4myoc","Tue Feb 16 2021 09:12:28 GMT+0100 (Centraleuropæisk normaltid)","2021","2","16","9","12","28","mg65","55","male","right","87","88","97","1","0","","","","","test","happy","happy","h","true"
"null","<div style=""font-size:60px;"">+</div>","null","html-keyboard-response","33","162842","0.0-9.0-0.12","h4myoc","Tue Feb 16 2021 09:12:28 GMT+0100 (Centraleuropæisk normaltid)","2021","2","16","9","12","28","mg65","55","male","right","87","88","97","1","0","","","","","fixation","","","",""
"1068.6700000005658","img/image_stim_f_stroop.png","70","image-keyboard-response","34","163913","0.0-9.0-1.12","h4myoc","Tue Feb 16 2021 09:12:28 GMT+0100 (Centraleuropæisk normaltid)","2021","2","16","9","12","28","mg65","55","male","right","87","88","97","1","0","","","","","test","fear","happy","f","true"
"null","<div style=""font-size:60px;"">+</div>","null","html-keyboard-response","35","164417","0.0-9.0-0.13","h4myoc","Tue Feb 16 2021 09:12:28 GMT+0100 (Centraleuropæisk normaltid)","2021","2","16","9","12","28","mg65","55","male","right","87","88","97","1","0","","","","","fixation","","","",""
"992.6999999997788","img/image_stim_h_stroop.png","72","image-keyboard-response","36","165412","0.0-9.0-1.13","h4myoc","Tue Feb 16 2021 09:12:28 GMT+0100 (Centraleuropæisk normaltid)","2021","2","16","9","12","28","mg65","55","male","right","87","88","97","1","0","","","","","test","happy","fear","h","true"
"null","<div style=""font-size:60px;"">+</div>","null","html-keyboard-response","37","167418","0.0-9.0-0.14","h4myoc","Tue Feb 16 2021 09:12:28 GMT+0100 (Centraleuropæisk normaltid)","2021","2","16","9","12","28","mg65","55","male","right","87","88","97","1","0","","","","","fixation","","","",""
"848.7350000004808","img/image_stim_f.png","70","image-keyboard-response","38","168270","0.0-9.0-1.14","h4myoc","Tue Feb 16 2021 09:12:28 GMT+0100 (Centraleuropæisk normaltid)","2021","2","16","9","12","28","mg65","55","male","right","87","88","97","1","0","","","","","test","fear","fear","f","true"
"null","<div style=""font-size:60px;"">+</div>","null","html-keyboard-response","39","170024","0.0-9.0-0.15","h4myoc","Tue Feb 16 2021 09:12:28 GMT+0100 (Centraleuropæisk normaltid)","2021","2","16","9","12","28","mg65","55","male","right","87","88","97","1","0","","","","","fixation","","","",""
"451.2000000004482","img/image_stim_h.png","72","image-keyboard-response","40","170477","0.0-9.0-1.15","h4myoc","Tue Feb 16 2021 09:12:28 GMT+0100 (Centraleuropæisk normaltid)","2021","2","16","9","12","28","mg65","55","male","right","87","88","97","1","0","","","","","test","happy","happy","h","true"
"null","<div style=""font-size:60px;"">+</div>","null","html-keyboard-response","41","170733","0.0-9.0-0.16","h4myoc","Tue Feb 16 2021 09:12:28 GMT+0100 (Centraleuropæisk normaltid)","2021","2","16","9","12","28","mg65","55","male","right","87","88","97","1","0","","","","","fixation","","","",""
"1521.0999999999476","img/image_stim_f_stroop.png","70","image-keyboard-response","42","172257","0.0-9.0-1.16","h4myoc","Tue Feb 16 2021 09:12:28 GMT+0100 (Centraleuropæisk normaltid)","2021","2","16","9","12","28","mg65","55","male","right","87","88","97","1","0","","","","","test","fear","happy","f","true"
"null","<div style=""font-size:60px;"">+</div>","null","html-keyboard-response","43","174013","0.0-9.0-0.17","h4myoc","Tue Feb 16 2021 09:12:28 GMT+0100 (Centraleuropæisk normaltid)","2021","2","16","9","12","28","mg65","55","male","right","87","88","97","1","0","","","","","fixation","","","",""
"1254.3350000005448","img/image_stim_f.png","70","image-keyboard-response","44","175270","0.0-9.0-1.17","h4myoc","Tue Feb 16 2021 09:12:28 GMT+0100 (Centraleuropæisk normaltid)","2021","2","16","9","12","28","mg65","55","male","right","87","88","97","1","0","","","","","test","fear","fear","f","true"
"null","<div style=""font-size:60px;"">+</div>","null","html-keyboard-response","45","176026","0.0-9.0-0.18","h4myoc","Tue Feb 16 2021 09:12:28 GMT+0100 (Centraleuropæisk normaltid)","2021","2","16","9","12","28","mg65","55","male","right","87","88","97","1","0","","","","","fixation","","","",""
"999.7849999999744","img/image_stim_h.png","72","image-keyboard-response","46","177028","0.0-9.0-1.18","h4myoc","Tue Feb 16 2021 09:12:28 GMT+0100 (Centraleuropæisk normaltid)","2021","2","16","9","12","28","mg65","55","male","right","87","88","97","1","0","","","","","test","happy","happy","h","true"
"null","<div style=""font-size:60px;"">+</div>","null","html-keyboard-response","47","177288","0.0-9.0-0.19","h4myoc","Tue Feb 16 2021 09:12:28 GMT+0100 (Centraleuropæisk normaltid)","2021","2","16","9","12","28","mg65","55","male","right","87","88","97","1","0","","","","","fixation","","","",""
"792.8350000001956","img/image_stim_h_stroop.png","72","image-keyboard-response","48","178084","0.0-9.0-1.19","h4myoc","Tue Feb 16 2021 09:12:28 GMT+0100 (Centraleuropæisk normaltid)","2021","2","16","9","12","28","mg65","55","male","right","87","88","97","1","0","","","","","test","happy","fear","h","true"
"null","<div style=""font-size:60px;"">+</div>","null","html-keyboard-response","49","179340","0.0-9.0-0.20","h4myoc","Tue Feb 16 2021 09:12:28 GMT+0100 (Centraleuropæisk normaltid)","2021","2","16","9","12","28","mg65","55","male","right","87","88","97","1","0","","","","","fixation","","","",""
"749.1250000002619","img/image_stim_h_stroop.png","72","image-keyboard-response","50","180092","0.0-9.0-1.20","h4myoc","Tue Feb 16 2021 09:12:28 GMT+0100 (Centraleuropæisk normaltid)","2021","2","16","9","12","28","mg65","55","male","right","87","88","97","1","0","","","","","test","happy","fear","h","true"
"null","<div style=""font-size:60px;"">+</div>","null","html-keyboard-response","51","180599","0.0-9.0-0.21","h4myoc","Tue Feb 16 2021 09:12:28 GMT+0100 (Centraleuropæisk normaltid)","2021","2","16","9","12","28","mg65","55","male","right","87","88","97","1","0","","","","","fixation","","","",""
"898.5700000002689","img/image_stim_f.png","70","image-keyboard-response","52","181500","0.0-9.0-1.21","h4myoc","Tue Feb 16 2021 09:12:28 GMT+0100 (Centraleuropæisk normaltid)","2021","2","16","9","12","28","mg65","55","male","right","87","88","97","1","0","","","","","test","fear","fear","f","true"
"null","<div style=""font-size:60px;"">+</div>","null","html-keyboard-response","53","182258","0.0-9.0-0.22","h4myoc","Tue Feb 16 2021 09:12:28 GMT+0100 (Centraleuropæisk normaltid)","2021","2","16","9","12","28","mg65","55","male","right","87","88","97","1","0","","","","","fixation","","","",""
"817.735000000539","img/image_stim_f_stroop.png","70","image-keyboard-response","54","183077","0.0-9.0-1.22","h4myoc","Tue Feb 16 2021 09:12:28 GMT+0100 (Centraleuropæisk normaltid)","2021","2","16","9","12","28","mg65","55","male","right","87","88","97","1","0","","","","","test","fear","happy","f","true"
"null","<div style=""font-size:60px;"">+</div>","null","html-keyboard-response","55","185084","0.0-9.0-0.23","h4myoc","Tue Feb 16 2021 09:12:28 GMT+0100 (Centraleuropæisk normaltid)","2021","2","16","9","12","28","mg65","55","male","right","87","88","97","1","0","","","","","fixation","","","",""
"831.1800000001094","img/image_stim_h.png","72","image-keyboard-response","56","185919","0.0-9.0-1.23","h4myoc","Tue Feb 16 2021 09:12:28 GMT+0100 (Centraleuropæisk normaltid)","2021","2","16","9","12","28","mg65","55","male","right","87","88","97","1","0","","","","","test","happy","happy","h","true"
"null","<div style=""font-size:60px;"">+</div>","null","html-keyboard-response","57","186175","0.0-9.0-0.24","h4myoc","Tue Feb 16 2021 09:12:28 GMT+0100 (Centraleuropæisk normaltid)","2021","2","16","9","12","28","mg65","55","male","right","87","88","97","1","0","","","","","fixation","","","",""
"889.0650000002934","img/image_stim_h_stroop.png","72","image-keyboard-response","58","187065","0.0-9.0-1.24","h4myoc","Tue Feb 16 2021 09:12:28 GMT+0100 (Centraleuropæisk normaltid)","2021","2","16","9","12","28","mg65","55","male","right","87","88","97","1","0","","","","","test","happy","fear","h","true"
"null","<div style=""font-size:60px;"">+</div>","null","html-keyboard-response","59","188075","0.0-9.0-0.25","h4myoc","Tue Feb 16 2021 09:12:28 GMT+0100 (Centraleuropæisk normaltid)","2021","2","16","9","12","28","mg65","55","male","right","87","88","97","1","0","","","","","fixation","","","",""
"724.8949999993783","img/image_stim_f.png","70","image-keyboard-response","60","188803","0.0-9.0-1.25","h4myoc","Tue Feb 16 2021 09:12:28 GMT+0100 (Centraleuropæisk normaltid)","2021","2","16","9","12","28","mg65","55","male","right","87","88","97","1","0","","","","","test","fear","fear","f","true"
"null","<div style=""font-size:60px;"">+</div>","null","html-keyboard-response","61","190309","0.0-9.0-0.26","h4myoc","Tue Feb 16 2021 09:12:28 GMT+0100 (Centraleuropæisk normaltid)","2021","2","16","9","12","28","mg65","55","male","right","87","88","97","1","0","","","","","fixation","","","",""
"779.7099999997881","img/image_stim_h.png","72","image-keyboard-response","62","191092","0.0-9.0-1.26","h4myoc","Tue Feb 16 2021 09:12:28 GMT+0100 (Centraleuropæisk normaltid)","2021","2","16","9","12","28","mg65","55","male","right","87","88","97","1","0","","","","","test","happy","happy","h","true"
"null","<div style=""font-size:60px;"">+</div>","null","html-keyboard-response","63","191598","0.0-9.0-0.27","h4myoc","Tue Feb 16 2021 09:12:28 GMT+0100 (Centraleuropæisk normaltid)","2021","2","16","9","12","28","mg65","55","male","right","87","88","97","1","0","","","","","fixation","","","",""
"880.8600000002189","img/image_stim_f_stroop.png","70","image-keyboard-response","64","192482","0.0-9.0-1.27","h4myoc","Tue Feb 16 2021 09:12:28 GMT+0100 (Centraleuropæisk normaltid)","2021","2","16","9","12","28","mg65","55","male","right","87","88","97","1","0","","","","","test","fear","happy","f","true"
"null","<div style=""font-size:60px;"">+</div>","null","html-keyboard-response","65","194491","0.0-9.0-0.28","h4myoc","Tue Feb 16 2021 09:12:28 GMT+0100 (Centraleuropæisk normaltid)","2021","2","16","9","12","28","mg65","55","male","right","87","88","97","1","0","","","","","fixation","","","",""
"775.5749999996624","img/image_stim_h_stroop.png","72","image-keyboard-response","66","195269","0.0-9.0-1.28","h4myoc","Tue Feb 16 2021 09:12:28 GMT+0100 (Centraleuropæisk normaltid)","2021","2","16","9","12","28","mg65","55","male","right","87","88","97","1","0","","","","","test","happy","fear","h","true"
"null","<div style=""font-size:60px;"">+</div>","null","html-keyboard-response","67","196025","0.0-9.0-0.29","h4myoc","Tue Feb 16 2021 09:12:28 GMT+0100 (Centraleuropæisk normaltid)","2021","2","16","9","12","28","mg65","55","male","right","87","88","97","1","0","","","","","fixation","","","",""
"821.5049999998882","img/image_stim_h.png","72","image-keyboard-response","68","196851","0.0-9.0-1.29","h4myoc","Tue Feb 16 2021 09:12:28 GMT+0100 (Centraleuropæisk normaltid)","2021","2","16","9","12","28","mg65","55","male","right","87","88","97","1","0","","","","","test","happy","happy","h","true"
"null","<div style=""font-size:60px;"">+</div>","null","html-keyboard-response","69","197109","0.0-9.0-0.30","h4myoc","Tue Feb 16 2021 09:12:28 GMT+0100 (Centraleuropæisk normaltid)","2021","2","16","9","12","28","mg65","55","male","right","87","88","97","1","0","","","","","fixation","","","",""
"836.2149999993562","img/image_stim_f_stroop.png","70","image-keyboard-response","70","197948","0.0-9.0-1.30","h4myoc","Tue Feb 16 2021 09:12:28 GMT+0100 (Centraleuropæisk normaltid)","2021","2","16","9","12","28","mg65","55","male","right","87","88","97","1","0","","","","","test","fear","happy","f","true"
"null","<div style=""font-size:60px;"">+</div>","null","html-keyboard-response","71","199452","0.0-9.0-0.31","h4myoc","Tue Feb 16 2021 09:12:28 GMT+0100 (Centraleuropæisk normaltid)","2021","2","16","9","12","28","mg65","55","male","right","87","88","97","1","0","","","","","fixation","","","",""
"920.7499999993015","img/image_stim_f.png","70","image-keyboard-response","72","200375","0.0-9.0-1.31","h4myoc","Tue Feb 16 2021 09:12:28 GMT+0100 (Centraleuropæisk normaltid)","2021","2","16","9","12","28","mg65","55","male","right","87","88","97","1","0","","","","","test","fear","fear","f","true"
"null","<div style=""font-size:60px;"">+</div>","null","html-keyboard-response","73","202383","0.0-9.0-0.32","h4myoc","Tue Feb 16 2021 09:12:28 GMT+0100 (Centraleuropæisk normaltid)","2021","2","16","9","12","28","mg65","55","male","right","87","88","97","1","0","","","","","fixation","","","",""
"742.6449999993492","img/image_stim_h.png","72","image-keyboard-response","74","203128","0.0-9.0-1.32","h4myoc","Tue Feb 16 2021 09:12:28 GMT+0100 (Centraleuropæisk normaltid)","2021","2","16","9","12","28","mg65","55","male","right","87","88","97","1","0","","","","","test","happy","happy","h","true"
"null","<div style=""font-size:60px;"">+</div>","null","html-keyboard-response","75","204885","0.0-9.0-0.33","h4myoc","Tue Feb 16 2021 09:12:28 GMT+0100 (Centraleuropæisk normaltid)","2021","2","16","9","12","28","mg65","55","male","right","87","88","97","1","0","","","","","fixation","","","",""
"719.6650000005611","img/image_stim_f.png","70","image-keyboard-response","76","205606","0.0-9.0-1.33","h4myoc","Tue Feb 16 2021 09:12:28 GMT+0100 (Centraleuropæisk normaltid)","2021","2","16","9","12","28","mg65","55","male","right","87","88","97","1","0","","","","","test","fear","fear","f","true"
"null","<div style=""font-size:60px;"">+</div>","null","html-keyboard-response","77","207117","0.0-9.0-0.34","h4myoc","Tue Feb 16 2021 09:12:28 GMT+0100 (Centraleuropæisk normaltid)","2021","2","16","9","12","28","mg65","55","male","right","87","88","97","1","0","","","","","fixation","","","",""
"788.9100000002072","img/image_stim_h_stroop.png","72","image-keyboard-response","78","207909","0.0-9.0-1.34","h4myoc","Tue Feb 16 2021 09:12:28 GMT+0100 (Centraleuropæisk normaltid)","2021","2","16","9","12","28","mg65","55","male","right","87","88","97","1","0","","","","","test","happy","fear","h","true"
"null","<div style=""font-size:60px;"">+</div>","null","html-keyboard-response","79","208162","0.0-9.0-0.35","h4myoc","Tue Feb 16 2021 09:12:28 GMT+0100 (Centraleuropæisk normaltid)","2021","2","16","9","12","28","mg65","55","male","right","87","88","97","1","0","","","","","fixation","","","",""
"841.690000000206","img/image_stim_f_stroop.png","70","image-keyboard-response","80","209006","0.0-9.0-1.35","h4myoc","Tue Feb 16 2021 09:12:28 GMT+0100 (Centraleuropæisk normaltid)","2021","2","16","9","12","28","mg65","55","male","right","87","88","97","1","0","","","","","test","fear","happy","f","true"
