"rt","stimulus","key_press","trial_type","trial_index","time_elapsed","internal_node_id","exp_id","Time","year","month","date","hour","minute","seconds","id","age","Gender","Handedness","mood","fresh","hunger","H_since_Sleep","H_since_Eat","responses","question_order","slider_start","response","test_part","face","word","correct_response","correct"
"6154","<p>Welcome to this experiment on daily rhythms and cognition.</p><p>First you will be asked some questions about yourself.</p><p>Then a short experiment will measure your response time.</p><p>Take the test at different times of the day/night.</p><p>The test is anonymous, but comparing your data across time is important.</p><p>Therefore, please make up and remember a personal ID (two letters+ two numbers).</p><p>Use this ID whenever taking the test.</p><p><strong>Press any key to begin.</strong></p>","32","html-keyboard-response","0","6155","0.0-0.0","8kpged","Thu Feb 10 2022 07:43:14 GMT+0100 (Mitteleuropäische Normalzeit)","2022","2","10","7","43","14","UR13","23","female","right","50","32","13","0","11","","","","","","","","",""
"7518","","","survey-text","1","13717","0.0-1.0","8kpged","Thu Feb 10 2022 07:43:14 GMT+0100 (Mitteleuropäische Normalzeit)","2022","2","10","7","43","14","UR13","23","female","right","50","32","13","0","11","{""Q0"":""UR13""}","","","","","","","",""
"2895","","","survey-text","2","16620","0.0-2.0","8kpged","Thu Feb 10 2022 07:43:14 GMT+0100 (Mitteleuropäische Normalzeit)","2022","2","10","7","43","14","UR13","23","female","right","50","32","13","0","11","{""Q0"":""23""}","","","","","","","",""
"4225","","","survey-multi-select","3","20853","0.0-3.0","8kpged","Thu Feb 10 2022 07:43:14 GMT+0100 (Mitteleuropäische Normalzeit)","2022","2","10","7","43","14","UR13","23","female","right","50","32","13","0","11","{""Gender"":[""female""],""Hand"":[""right""]}","[0,1]","","","","","","",""
"2649","<p>How Sad/Angry or Happy are you right now?</p>","","html-slider-response","4","23544","0.0-4.0","8kpged","Thu Feb 10 2022 07:43:14 GMT+0100 (Mitteleuropäische Normalzeit)","2022","2","10","7","43","14","UR13","23","female","right","50","32","13","0","11","","","50","50","","","","",""
"4335","<p>How Tired/Sleepy/Distracted or Fresh/Awake/Alert are you right now?</p>","","html-slider-response","5","27883","0.0-5.0","8kpged","Thu Feb 10 2022 07:43:14 GMT+0100 (Mitteleuropäische Normalzeit)","2022","2","10","7","43","14","UR13","23","female","right","50","32","13","0","11","","","50","32","","","","",""
"6637","<p>How Hungry or Satiated are you right now?</p>","","html-slider-response","6","34523","0.0-6.0","8kpged","Thu Feb 10 2022 07:43:14 GMT+0100 (Mitteleuropäische Normalzeit)","2022","2","10","7","43","14","UR13","23","female","right","50","32","13","0","11","","","50","13","","","","",""
"36275","","","survey-multi-select","7","70821","0.0-7.0","8kpged","Thu Feb 10 2022 07:43:14 GMT+0100 (Mitteleuropäische Normalzeit)","2022","2","10","7","43","14","UR13","23","female","right","50","32","13","0","11","{""Sleep"":[""0""],""Eat"":[""11""]}","[0,1]","","","","","","",""
"21456","<p>In this experiment, a face and a word will appear in the center of the screen.</p><p>If the face is <strong>happy</strong>, press the letter <strong>H</strong> with <strong>right</strong> index finger.</p><p>If the face is <strong>fearful</strong>, press the letter <strong>F</strong> with <strong>left</strong> index finger.</p><p><strong>Ignore the written words</strong>. Respond as fast as possible while being correct. </p><div style='width: 900px;'><div style='float: left;'><img src='img/stimuli_stroop_happy.png'></img><p class='small'><strong>Press the H key for happy faces</strong></p></div><div class='float: right;'><img src='img/stimuli_stroop_fear.png'></img><p class='small'><strong>Press the F key for faces with fear</strong></p></div></div><p>If the screen turns blank, press <strong>SPACE</strong></p><p><strong>Press any key to begin.</strong></p>","37","html-keyboard-response","8","92280","0.0-8.0","8kpged","Thu Feb 10 2022 07:43:14 GMT+0100 (Mitteleuropäische Normalzeit)","2022","2","10","7","43","14","UR13","23","female","right","50","32","13","0","11","","","","","","","","",""
"null","<div style=""font-size:60px;"">+</div>","null","html-keyboard-response","9","96077","0.0-9.0-0.0","8kpged","Thu Feb 10 2022 07:43:14 GMT+0100 (Mitteleuropäische Normalzeit)","2022","2","10","7","43","14","UR13","23","female","right","50","32","13","0","11","","","","","fixation","","","",""
"651","img/image_stim_h.png","72","image-keyboard-response","10","96734","0.0-9.0-1.0","8kpged","Thu Feb 10 2022 07:43:14 GMT+0100 (Mitteleuropäische Normalzeit)","2022","2","10","7","43","14","UR13","23","female","right","50","32","13","0","11","","","","","test","happy","happy","h","true"
"null","<div style=""font-size:60px;"">+</div>","null","html-keyboard-response","11","98754","0.0-9.0-0.1","8kpged","Thu Feb 10 2022 07:43:14 GMT+0100 (Mitteleuropäische Normalzeit)","2022","2","10","7","43","14","UR13","23","female","right","50","32","13","0","11","","","","","fixation","","","",""
"363","img/image_stim_f.png","70","image-keyboard-response","12","99120","0.0-9.0-1.1","8kpged","Thu Feb 10 2022 07:43:14 GMT+0100 (Mitteleuropäische Normalzeit)","2022","2","10","7","43","14","UR13","23","female","right","50","32","13","0","11","","","","","test","fear","fear","f","true"
"null","<div style=""font-size:60px;"">+</div>","null","html-keyboard-response","13","99375","0.0-9.0-0.2","8kpged","Thu Feb 10 2022 07:43:14 GMT+0100 (Mitteleuropäische Normalzeit)","2022","2","10","7","43","14","UR13","23","female","right","50","32","13","0","11","","","","","fixation","","","",""
"924","img/image_stim_h_stroop.png","70","image-keyboard-response","14","100303","0.0-9.0-1.2","8kpged","Thu Feb 10 2022 07:43:14 GMT+0100 (Mitteleuropäische Normalzeit)","2022","2","10","7","43","14","UR13","23","female","right","50","32","13","0","11","","","","","test","happy","fear","h","false"
"null","<div style=""font-size:60px;"">+</div>","null","html-keyboard-response","15","101573","0.0-9.0-0.3","8kpged","Thu Feb 10 2022 07:43:14 GMT+0100 (Mitteleuropäische Normalzeit)","2022","2","10","7","43","14","UR13","23","female","right","50","32","13","0","11","","","","","fixation","","","",""
"879","img/image_stim_f_stroop.png","70","image-keyboard-response","16","102455","0.0-9.0-1.3","8kpged","Thu Feb 10 2022 07:43:14 GMT+0100 (Mitteleuropäische Normalzeit)","2022","2","10","7","43","14","UR13","23","female","right","50","32","13","0","11","","","","","test","fear","happy","f","true"
"null","<div style=""font-size:60px;"">+</div>","null","html-keyboard-response","17","104470","0.0-9.0-0.4","8kpged","Thu Feb 10 2022 07:43:14 GMT+0100 (Mitteleuropäische Normalzeit)","2022","2","10","7","43","14","UR13","23","female","right","50","32","13","0","11","","","","","fixation","","","",""
"818","img/image_stim_f.png","70","image-keyboard-response","18","105290","0.0-9.0-1.4","8kpged","Thu Feb 10 2022 07:43:14 GMT+0100 (Mitteleuropäische Normalzeit)","2022","2","10","7","43","14","UR13","23","female","right","50","32","13","0","11","","","","","test","fear","fear","f","true"
"null","<div style=""font-size:60px;"">+</div>","null","html-keyboard-response","19","105555","0.0-9.0-0.5","8kpged","Thu Feb 10 2022 07:43:14 GMT+0100 (Mitteleuropäische Normalzeit)","2022","2","10","7","43","14","UR13","23","female","right","50","32","13","0","11","","","","","fixation","","","",""
"465","img/image_stim_f_stroop.png","70","image-keyboard-response","20","106021","0.0-9.0-1.5","8kpged","Thu Feb 10 2022 07:43:14 GMT+0100 (Mitteleuropäische Normalzeit)","2022","2","10","7","43","14","UR13","23","female","right","50","32","13","0","11","","","","","test","fear","happy","f","true"
"null","<div style=""font-size:60px;"">+</div>","null","html-keyboard-response","21","108029","0.0-9.0-0.6","8kpged","Thu Feb 10 2022 07:43:14 GMT+0100 (Mitteleuropäische Normalzeit)","2022","2","10","7","43","14","UR13","23","female","right","50","32","13","0","11","","","","","fixation","","","",""
"592","img/image_stim_h_stroop.png","72","image-keyboard-response","22","108623","0.0-9.0-1.6","8kpged","Thu Feb 10 2022 07:43:14 GMT+0100 (Mitteleuropäische Normalzeit)","2022","2","10","7","43","14","UR13","23","female","right","50","32","13","0","11","","","","","test","happy","fear","h","true"
"null","<div style=""font-size:60px;"">+</div>","null","html-keyboard-response","23","110134","0.0-9.0-0.7","8kpged","Thu Feb 10 2022 07:43:14 GMT+0100 (Mitteleuropäische Normalzeit)","2022","2","10","7","43","14","UR13","23","female","right","50","32","13","0","11","","","","","fixation","","","",""
"432","img/image_stim_h.png","72","image-keyboard-response","24","110567","0.0-9.0-1.7","8kpged","Thu Feb 10 2022 07:43:14 GMT+0100 (Mitteleuropäische Normalzeit)","2022","2","10","7","43","14","UR13","23","female","right","50","32","13","0","11","","","","","test","happy","happy","h","true"
"null","<div style=""font-size:60px;"">+</div>","null","html-keyboard-response","25","111327","0.0-9.0-0.8","8kpged","Thu Feb 10 2022 07:43:14 GMT+0100 (Mitteleuropäische Normalzeit)","2022","2","10","7","43","14","UR13","23","female","right","50","32","13","0","11","","","","","fixation","","","",""
"444","img/image_stim_f_stroop.png","70","image-keyboard-response","26","111772","0.0-9.0-1.8","8kpged","Thu Feb 10 2022 07:43:14 GMT+0100 (Mitteleuropäische Normalzeit)","2022","2","10","7","43","14","UR13","23","female","right","50","32","13","0","11","","","","","test","fear","happy","f","true"
"null","<div style=""font-size:60px;"">+</div>","null","html-keyboard-response","27","112027","0.0-9.0-0.9","8kpged","Thu Feb 10 2022 07:43:14 GMT+0100 (Mitteleuropäische Normalzeit)","2022","2","10","7","43","14","UR13","23","female","right","50","32","13","0","11","","","","","fixation","","","",""
"596","img/image_stim_h.png","72","image-keyboard-response","28","112625","0.0-9.0-1.9","8kpged","Thu Feb 10 2022 07:43:14 GMT+0100 (Mitteleuropäische Normalzeit)","2022","2","10","7","43","14","UR13","23","female","right","50","32","13","0","11","","","","","test","happy","happy","h","true"
"null","<div style=""font-size:60px;"">+</div>","null","html-keyboard-response","29","112883","0.0-9.0-0.10","8kpged","Thu Feb 10 2022 07:43:14 GMT+0100 (Mitteleuropäische Normalzeit)","2022","2","10","7","43","14","UR13","23","female","right","50","32","13","0","11","","","","","fixation","","","",""
"552","img/image_stim_f.png","70","image-keyboard-response","30","113436","0.0-9.0-1.10","8kpged","Thu Feb 10 2022 07:43:14 GMT+0100 (Mitteleuropäische Normalzeit)","2022","2","10","7","43","14","UR13","23","female","right","50","32","13","0","11","","","","","test","fear","fear","f","true"
"null","<div style=""font-size:60px;"">+</div>","null","html-keyboard-response","31","115440","0.0-9.0-0.11","8kpged","Thu Feb 10 2022 07:43:14 GMT+0100 (Mitteleuropäische Normalzeit)","2022","2","10","7","43","14","UR13","23","female","right","50","32","13","0","11","","","","","fixation","","","",""
"700","img/image_stim_h_stroop.png","72","image-keyboard-response","32","116142","0.0-9.0-1.11","8kpged","Thu Feb 10 2022 07:43:14 GMT+0100 (Mitteleuropäische Normalzeit)","2022","2","10","7","43","14","UR13","23","female","right","50","32","13","0","11","","","","","test","happy","fear","h","true"
"null","<div style=""font-size:60px;"">+</div>","null","html-keyboard-response","33","117410","0.0-9.0-0.12","8kpged","Thu Feb 10 2022 07:43:14 GMT+0100 (Mitteleuropäische Normalzeit)","2022","2","10","7","43","14","UR13","23","female","right","50","32","13","0","11","","","","","fixation","","","",""
"612","img/image_stim_f_stroop.png","70","image-keyboard-response","34","118022","0.0-9.0-1.12","8kpged","Thu Feb 10 2022 07:43:14 GMT+0100 (Mitteleuropäische Normalzeit)","2022","2","10","7","43","14","UR13","23","female","right","50","32","13","0","11","","","","","test","fear","happy","f","true"
"null","<div style=""font-size:60px;"">+</div>","null","html-keyboard-response","35","119291","0.0-9.0-0.13","8kpged","Thu Feb 10 2022 07:43:14 GMT+0100 (Mitteleuropäische Normalzeit)","2022","2","10","7","43","14","UR13","23","female","right","50","32","13","0","11","","","","","fixation","","","",""
"505","img/image_stim_h.png","72","image-keyboard-response","36","119798","0.0-9.0-1.13","8kpged","Thu Feb 10 2022 07:43:14 GMT+0100 (Mitteleuropäische Normalzeit)","2022","2","10","7","43","14","UR13","23","female","right","50","32","13","0","11","","","","","test","happy","happy","h","true"
"null","<div style=""font-size:60px;"">+</div>","null","html-keyboard-response","37","121561","0.0-9.0-0.14","8kpged","Thu Feb 10 2022 07:43:14 GMT+0100 (Mitteleuropäische Normalzeit)","2022","2","10","7","43","14","UR13","23","female","right","50","32","13","0","11","","","","","fixation","","","",""
"893","img/image_stim_h_stroop.png","72","image-keyboard-response","38","122456","0.0-9.0-1.14","8kpged","Thu Feb 10 2022 07:43:14 GMT+0100 (Mitteleuropäische Normalzeit)","2022","2","10","7","43","14","UR13","23","female","right","50","32","13","0","11","","","","","test","happy","fear","h","true"
"null","<div style=""font-size:60px;"">+</div>","null","html-keyboard-response","39","122961","0.0-9.0-0.15","8kpged","Thu Feb 10 2022 07:43:14 GMT+0100 (Mitteleuropäische Normalzeit)","2022","2","10","7","43","14","UR13","23","female","right","50","32","13","0","11","","","","","fixation","","","",""
"554","img/image_stim_f.png","70","image-keyboard-response","40","123518","0.0-9.0-1.15","8kpged","Thu Feb 10 2022 07:43:14 GMT+0100 (Mitteleuropäische Normalzeit)","2022","2","10","7","43","14","UR13","23","female","right","50","32","13","0","11","","","","","test","fear","fear","f","true"
"null","<div style=""font-size:60px;"">+</div>","null","html-keyboard-response","41","125272","0.0-9.0-0.16","8kpged","Thu Feb 10 2022 07:43:14 GMT+0100 (Mitteleuropäische Normalzeit)","2022","2","10","7","43","14","UR13","23","female","right","50","32","13","0","11","","","","","fixation","","","",""
"634","img/image_stim_f_stroop.png","70","image-keyboard-response","42","125908","0.0-9.0-1.16","8kpged","Thu Feb 10 2022 07:43:14 GMT+0100 (Mitteleuropäische Normalzeit)","2022","2","10","7","43","14","UR13","23","female","right","50","32","13","0","11","","","","","test","fear","happy","f","true"
"null","<div style=""font-size:60px;"">+</div>","null","html-keyboard-response","43","127166","0.0-9.0-0.17","8kpged","Thu Feb 10 2022 07:43:14 GMT+0100 (Mitteleuropäische Normalzeit)","2022","2","10","7","43","14","UR13","23","female","right","50","32","13","0","11","","","","","fixation","","","",""
"605","img/image_stim_h_stroop.png","72","image-keyboard-response","44","127772","0.0-9.0-1.17","8kpged","Thu Feb 10 2022 07:43:14 GMT+0100 (Mitteleuropäische Normalzeit)","2022","2","10","7","43","14","UR13","23","female","right","50","32","13","0","11","","","","","test","happy","fear","h","true"
"null","<div style=""font-size:60px;"">+</div>","null","html-keyboard-response","45","129776","0.0-9.0-0.18","8kpged","Thu Feb 10 2022 07:43:14 GMT+0100 (Mitteleuropäische Normalzeit)","2022","2","10","7","43","14","UR13","23","female","right","50","32","13","0","11","","","","","fixation","","","",""
"712","img/image_stim_h.png","72","image-keyboard-response","46","130490","0.0-9.0-1.18","8kpged","Thu Feb 10 2022 07:43:14 GMT+0100 (Mitteleuropäische Normalzeit)","2022","2","10","7","43","14","UR13","23","female","right","50","32","13","0","11","","","","","test","happy","happy","h","true"
"null","<div style=""font-size:60px;"">+</div>","null","html-keyboard-response","47","131744","0.0-9.0-0.19","8kpged","Thu Feb 10 2022 07:43:14 GMT+0100 (Mitteleuropäische Normalzeit)","2022","2","10","7","43","14","UR13","23","female","right","50","32","13","0","11","","","","","fixation","","","",""
"580","img/image_stim_f.png","70","image-keyboard-response","48","132326","0.0-9.0-1.19","8kpged","Thu Feb 10 2022 07:43:14 GMT+0100 (Mitteleuropäische Normalzeit)","2022","2","10","7","43","14","UR13","23","female","right","50","32","13","0","11","","","","","test","fear","fear","f","true"
"null","<div style=""font-size:60px;"">+</div>","null","html-keyboard-response","49","132835","0.0-9.0-0.20","8kpged","Thu Feb 10 2022 07:43:14 GMT+0100 (Mitteleuropäische Normalzeit)","2022","2","10","7","43","14","UR13","23","female","right","50","32","13","0","11","","","","","fixation","","","",""
"670","img/image_stim_h.png","72","image-keyboard-response","50","133505","0.0-9.0-1.20","8kpged","Thu Feb 10 2022 07:43:14 GMT+0100 (Mitteleuropäische Normalzeit)","2022","2","10","7","43","14","UR13","23","female","right","50","32","13","0","11","","","","","test","happy","happy","h","true"
"null","<div style=""font-size:60px;"">+</div>","null","html-keyboard-response","51","135023","0.0-9.0-0.21","8kpged","Thu Feb 10 2022 07:43:14 GMT+0100 (Mitteleuropäische Normalzeit)","2022","2","10","7","43","14","UR13","23","female","right","50","32","13","0","11","","","","","fixation","","","",""
"704","img/image_stim_h_stroop.png","72","image-keyboard-response","52","135729","0.0-9.0-1.21","8kpged","Thu Feb 10 2022 07:43:14 GMT+0100 (Mitteleuropäische Normalzeit)","2022","2","10","7","43","14","UR13","23","female","right","50","32","13","0","11","","","","","test","happy","fear","h","true"
"null","<div style=""font-size:60px;"">+</div>","null","html-keyboard-response","53","136991","0.0-9.0-0.22","8kpged","Thu Feb 10 2022 07:43:14 GMT+0100 (Mitteleuropäische Normalzeit)","2022","2","10","7","43","14","UR13","23","female","right","50","32","13","0","11","","","","","fixation","","","",""
"426","img/image_stim_f.png","70","image-keyboard-response","54","137419","0.0-9.0-1.22","8kpged","Thu Feb 10 2022 07:43:14 GMT+0100 (Mitteleuropäische Normalzeit)","2022","2","10","7","43","14","UR13","23","female","right","50","32","13","0","11","","","","","test","fear","fear","f","true"
"null","<div style=""font-size:60px;"">+</div>","null","html-keyboard-response","55","138431","0.0-9.0-0.23","8kpged","Thu Feb 10 2022 07:43:14 GMT+0100 (Mitteleuropäische Normalzeit)","2022","2","10","7","43","14","UR13","23","female","right","50","32","13","0","11","","","","","fixation","","","",""
"571","img/image_stim_f_stroop.png","70","image-keyboard-response","56","139002","0.0-9.0-1.23","8kpged","Thu Feb 10 2022 07:43:14 GMT+0100 (Mitteleuropäische Normalzeit)","2022","2","10","7","43","14","UR13","23","female","right","50","32","13","0","11","","","","","test","fear","happy","f","true"
"null","<div style=""font-size:60px;"">+</div>","null","html-keyboard-response","57","139508","0.0-9.0-0.24","8kpged","Thu Feb 10 2022 07:43:14 GMT+0100 (Mitteleuropäische Normalzeit)","2022","2","10","7","43","14","UR13","23","female","right","50","32","13","0","11","","","","","fixation","","","",""
"607","img/image_stim_f_stroop.png","70","image-keyboard-response","58","140116","0.0-9.0-1.24","8kpged","Thu Feb 10 2022 07:43:14 GMT+0100 (Mitteleuropäische Normalzeit)","2022","2","10","7","43","14","UR13","23","female","right","50","32","13","0","11","","","","","test","fear","happy","f","true"
"null","<div style=""font-size:60px;"">+</div>","null","html-keyboard-response","59","140633","0.0-9.0-0.25","8kpged","Thu Feb 10 2022 07:43:14 GMT+0100 (Mitteleuropäische Normalzeit)","2022","2","10","7","43","14","UR13","23","female","right","50","32","13","0","11","","","","","fixation","","","",""
"473","img/image_stim_h.png","72","image-keyboard-response","60","141107","0.0-9.0-1.25","8kpged","Thu Feb 10 2022 07:43:14 GMT+0100 (Mitteleuropäische Normalzeit)","2022","2","10","7","43","14","UR13","23","female","right","50","32","13","0","11","","","","","test","happy","happy","h","true"
"null","<div style=""font-size:60px;"">+</div>","null","html-keyboard-response","61","142371","0.0-9.0-0.26","8kpged","Thu Feb 10 2022 07:43:14 GMT+0100 (Mitteleuropäische Normalzeit)","2022","2","10","7","43","14","UR13","23","female","right","50","32","13","0","11","","","","","fixation","","","",""
"605","img/image_stim_h_stroop.png","72","image-keyboard-response","62","142978","0.0-9.0-1.26","8kpged","Thu Feb 10 2022 07:43:14 GMT+0100 (Mitteleuropäische Normalzeit)","2022","2","10","7","43","14","UR13","23","female","right","50","32","13","0","11","","","","","test","happy","fear","h","true"
"null","<div style=""font-size:60px;"">+</div>","null","html-keyboard-response","63","143995","0.0-9.0-0.27","8kpged","Thu Feb 10 2022 07:43:14 GMT+0100 (Mitteleuropäische Normalzeit)","2022","2","10","7","43","14","UR13","23","female","right","50","32","13","0","11","","","","","fixation","","","",""
"514","img/image_stim_f.png","70","image-keyboard-response","64","144509","0.0-9.0-1.27","8kpged","Thu Feb 10 2022 07:43:14 GMT+0100 (Mitteleuropäische Normalzeit)","2022","2","10","7","43","14","UR13","23","female","right","50","32","13","0","11","","","","","test","fear","fear","f","true"
"null","<div style=""font-size:60px;"">+</div>","null","html-keyboard-response","65","146017","0.0-9.0-0.28","8kpged","Thu Feb 10 2022 07:43:14 GMT+0100 (Mitteleuropäische Normalzeit)","2022","2","10","7","43","14","UR13","23","female","right","50","32","13","0","11","","","","","fixation","","","",""
"604","img/image_stim_f_stroop.png","70","image-keyboard-response","66","146623","0.0-9.0-1.28","8kpged","Thu Feb 10 2022 07:43:14 GMT+0100 (Mitteleuropäische Normalzeit)","2022","2","10","7","43","14","UR13","23","female","right","50","32","13","0","11","","","","","test","fear","happy","f","true"
"null","<div style=""font-size:60px;"">+</div>","null","html-keyboard-response","67","148140","0.0-9.0-0.29","8kpged","Thu Feb 10 2022 07:43:14 GMT+0100 (Mitteleuropäische Normalzeit)","2022","2","10","7","43","14","UR13","23","female","right","50","32","13","0","11","","","","","fixation","","","",""
"467","img/image_stim_h_stroop.png","72","image-keyboard-response","68","148609","0.0-9.0-1.29","8kpged","Thu Feb 10 2022 07:43:14 GMT+0100 (Mitteleuropäische Normalzeit)","2022","2","10","7","43","14","UR13","23","female","right","50","32","13","0","11","","","","","test","happy","fear","h","true"
"null","<div style=""font-size:60px;"">+</div>","null","html-keyboard-response","69","148872","0.0-9.0-0.30","8kpged","Thu Feb 10 2022 07:43:14 GMT+0100 (Mitteleuropäische Normalzeit)","2022","2","10","7","43","14","UR13","23","female","right","50","32","13","0","11","","","","","fixation","","","",""
"513","img/image_stim_h.png","72","image-keyboard-response","70","149387","0.0-9.0-1.30","8kpged","Thu Feb 10 2022 07:43:14 GMT+0100 (Mitteleuropäische Normalzeit)","2022","2","10","7","43","14","UR13","23","female","right","50","32","13","0","11","","","","","test","happy","happy","h","true"
"null","<div style=""font-size:60px;"">+</div>","null","html-keyboard-response","71","150400","0.0-9.0-0.31","8kpged","Thu Feb 10 2022 07:43:14 GMT+0100 (Mitteleuropäische Normalzeit)","2022","2","10","7","43","14","UR13","23","female","right","50","32","13","0","11","","","","","fixation","","","",""
"529","img/image_stim_f.png","70","image-keyboard-response","72","150930","0.0-9.0-1.31","8kpged","Thu Feb 10 2022 07:43:14 GMT+0100 (Mitteleuropäische Normalzeit)","2022","2","10","7","43","14","UR13","23","female","right","50","32","13","0","11","","","","","test","fear","fear","f","true"
"null","<div style=""font-size:60px;"">+</div>","null","html-keyboard-response","73","151939","0.0-9.0-0.32","8kpged","Thu Feb 10 2022 07:43:14 GMT+0100 (Mitteleuropäische Normalzeit)","2022","2","10","7","43","14","UR13","23","female","right","50","32","13","0","11","","","","","fixation","","","",""
"496","img/image_stim_h_stroop.png","72","image-keyboard-response","74","152436","0.0-9.0-1.32","8kpged","Thu Feb 10 2022 07:43:14 GMT+0100 (Mitteleuropäische Normalzeit)","2022","2","10","7","43","14","UR13","23","female","right","50","32","13","0","11","","","","","test","happy","fear","h","true"
"null","<div style=""font-size:60px;"">+</div>","null","html-keyboard-response","75","154456","0.0-9.0-0.33","8kpged","Thu Feb 10 2022 07:43:14 GMT+0100 (Mitteleuropäische Normalzeit)","2022","2","10","7","43","14","UR13","23","female","right","50","32","13","0","11","","","","","fixation","","","",""
"569","img/image_stim_f.png","70","image-keyboard-response","76","155027","0.0-9.0-1.33","8kpged","Thu Feb 10 2022 07:43:14 GMT+0100 (Mitteleuropäische Normalzeit)","2022","2","10","7","43","14","UR13","23","female","right","50","32","13","0","11","","","","","test","fear","fear","f","true"
"null","<div style=""font-size:60px;"">+</div>","null","html-keyboard-response","77","156037","0.0-9.0-0.34","8kpged","Thu Feb 10 2022 07:43:14 GMT+0100 (Mitteleuropäische Normalzeit)","2022","2","10","7","43","14","UR13","23","female","right","50","32","13","0","11","","","","","fixation","","","",""
"455","img/image_stim_f_stroop.png","70","image-keyboard-response","78","156493","0.0-9.0-1.34","8kpged","Thu Feb 10 2022 07:43:14 GMT+0100 (Mitteleuropäische Normalzeit)","2022","2","10","7","43","14","UR13","23","female","right","50","32","13","0","11","","","","","test","fear","happy","f","true"
"null","<div style=""font-size:60px;"">+</div>","null","html-keyboard-response","79","157501","0.0-9.0-0.35","8kpged","Thu Feb 10 2022 07:43:14 GMT+0100 (Mitteleuropäische Normalzeit)","2022","2","10","7","43","14","UR13","23","female","right","50","32","13","0","11","","","","","fixation","","","",""
"484","img/image_stim_h.png","72","image-keyboard-response","80","157988","0.0-9.0-1.35","8kpged","Thu Feb 10 2022 07:43:14 GMT+0100 (Mitteleuropäische Normalzeit)","2022","2","10","7","43","14","UR13","23","female","right","50","32","13","0","11","","","","","test","happy","happy","h","true"
