"rt","stimulus","key_press","trial_type","trial_index","time_elapsed","internal_node_id","exp_id","Time","year","month","date","hour","minute","seconds","id","age","Gender","Handedness","mood","fresh","hunger","H_since_Sleep","H_since_Eat","responses","question_order","slider_start","response","test_part","face","word","correct_response","correct"
"1997.300000000003","<p>Welcome to this experiment on daily rhythms and cognition.</p><p>First you will be asked some questions about yourself.</p><p>Then a short experiment will measure your response time.</p><p>Take the test at different times of the day/night.</p><p>The test is anonymous, but comparing your data across time is important.</p><p>Therefore, please make up and remember a personal ID (two letters+ two numbers).</p><p>Use this ID whenever taking the test.</p><p><strong>Press any key to begin.</strong></p>","32","html-keyboard-response","0","1999","0.0-0.0","ktga6e","Fri Feb 11 2022 01:09:01 GMT+0100 (Central European Standard Time)","2022","2","11","1","9","1","fa52","21","male","right","20","22","70","19","7","","","","","","","","",""
"9849.600000000006","","","survey-text","1","11861","0.0-1.0","ktga6e","Fri Feb 11 2022 01:09:01 GMT+0100 (Central European Standard Time)","2022","2","11","1","9","1","fa52","21","male","right","20","22","70","19","7","{""Q0"":""fa52""}","","","","","","","",""
"2350.699999999997","","","survey-text","2","14216","0.0-2.0","ktga6e","Fri Feb 11 2022 01:09:01 GMT+0100 (Central European Standard Time)","2022","2","11","1","9","1","fa52","21","male","right","20","22","70","19","7","{""Q0"":""21""}","","","","","","","",""
"3908.0999999999913","","","survey-multi-select","3","18128","0.0-3.0","ktga6e","Fri Feb 11 2022 01:09:01 GMT+0100 (Central European Standard Time)","2022","2","11","1","9","1","fa52","21","male","right","20","22","70","19","7","{""Gender"":[""male""],""Hand"":[""right""]}","[0,1]","","","","","","",""
"8539.100000000006","<p>How Sad/Angry or Happy are you right now?</p>","","html-slider-response","4","26676","0.0-4.0","ktga6e","Fri Feb 11 2022 01:09:01 GMT+0100 (Central European Standard Time)","2022","2","11","1","9","1","fa52","21","male","right","20","22","70","19","7","","","50","20","","","","",""
"5802.5","<p>How Tired/Sleepy/Distracted or Fresh/Awake/Alert are you right now?</p>","","html-slider-response","5","32480","0.0-5.0","ktga6e","Fri Feb 11 2022 01:09:01 GMT+0100 (Central European Standard Time)","2022","2","11","1","9","1","fa52","21","male","right","20","22","70","19","7","","","50","22","","","","",""
"5444.799999999988","<p>How Hungry or Satiated are you right now?</p>","","html-slider-response","6","37926","0.0-6.0","ktga6e","Fri Feb 11 2022 01:09:01 GMT+0100 (Central European Standard Time)","2022","2","11","1","9","1","fa52","21","male","right","20","22","70","19","7","","","50","70","","","","",""
"46788.30000000002","","","survey-multi-select","7","84736","0.0-7.0","ktga6e","Fri Feb 11 2022 01:09:01 GMT+0100 (Central European Standard Time)","2022","2","11","1","9","1","fa52","21","male","right","20","22","70","19","7","{""Sleep"":[""19""],""Eat"":[""7""]}","[0,1]","","","","","","",""
"10720.100000000006","<p>In this experiment, a face and a word will appear in the center of the screen.</p><p>If the face is <strong>happy</strong>, press the letter <strong>H</strong> with <strong>right</strong> index finger.</p><p>If the face is <strong>fearful</strong>, press the letter <strong>F</strong> with <strong>left</strong> index finger.</p><p><strong>Ignore the written words</strong>. Respond as fast as possible while being correct. </p><div style='width: 900px;'><div style='float: left;'><img src='img/stimuli_stroop_happy.png'></img><p class='small'><strong>Press the H key for happy faces</strong></p></div><div class='float: right;'><img src='img/stimuli_stroop_fear.png'></img><p class='small'><strong>Press the F key for faces with fear</strong></p></div></div><p>If the screen turns blank, press <strong>SPACE</strong></p><p><strong>Press any key to begin.</strong></p>","32","html-keyboard-response","8","95461","0.0-8.0","ktga6e","Fri Feb 11 2022 01:09:01 GMT+0100 (Central European Standard Time)","2022","2","11","1","9","1","fa52","21","male","right","20","22","70","19","7","","","","","","","","",""
"null","<div style=""font-size:60px;"">+</div>","null","html-keyboard-response","9","98714","0.0-9.0-0.0","ktga6e","Fri Feb 11 2022 01:09:01 GMT+0100 (Central European Standard Time)","2022","2","11","1","9","1","fa52","21","male","right","20","22","70","19","7","","","","","fixation","","","",""
"1028.1000000000058","img/image_stim_f.png","70","image-keyboard-response","10","99752","0.0-9.0-1.0","ktga6e","Fri Feb 11 2022 01:09:01 GMT+0100 (Central European Standard Time)","2022","2","11","1","9","1","fa52","21","male","right","20","22","70","19","7","","","","","test","fear","fear","f","true"
"null","<div style=""font-size:60px;"">+</div>","null","html-keyboard-response","11","100754","0.0-9.0-0.1","ktga6e","Fri Feb 11 2022 01:09:01 GMT+0100 (Central European Standard Time)","2022","2","11","1","9","1","fa52","21","male","right","20","22","70","19","7","","","","","fixation","","","",""
"532.6000000000058","img/image_stim_h_stroop.png","72","image-keyboard-response","12","101288","0.0-9.0-1.1","ktga6e","Fri Feb 11 2022 01:09:01 GMT+0100 (Central European Standard Time)","2022","2","11","1","9","1","fa52","21","male","right","20","22","70","19","7","","","","","test","happy","fear","h","true"
"null","<div style=""font-size:60px;"">+</div>","null","html-keyboard-response","13","103290","0.0-9.0-0.2","ktga6e","Fri Feb 11 2022 01:09:01 GMT+0100 (Central European Standard Time)","2022","2","11","1","9","1","fa52","21","male","right","20","22","70","19","7","","","","","fixation","","","",""
"781.2999999999884","img/image_stim_f_stroop.png","70","image-keyboard-response","14","104072","0.0-9.0-1.2","ktga6e","Fri Feb 11 2022 01:09:01 GMT+0100 (Central European Standard Time)","2022","2","11","1","9","1","fa52","21","male","right","20","22","70","19","7","","","","","test","fear","happy","f","true"
"null","<div style=""font-size:60px;"">+</div>","null","html-keyboard-response","15","106075","0.0-9.0-0.3","ktga6e","Fri Feb 11 2022 01:09:01 GMT+0100 (Central European Standard Time)","2022","2","11","1","9","1","fa52","21","male","right","20","22","70","19","7","","","","","fixation","","","",""
"411.6000000000058","img/image_stim_h.png","72","image-keyboard-response","16","106488","0.0-9.0-1.3","ktga6e","Fri Feb 11 2022 01:09:01 GMT+0100 (Central European Standard Time)","2022","2","11","1","9","1","fa52","21","male","right","20","22","70","19","7","","","","","test","happy","happy","h","true"
"null","<div style=""font-size:60px;"">+</div>","null","html-keyboard-response","17","108490","0.0-9.0-0.4","ktga6e","Fri Feb 11 2022 01:09:01 GMT+0100 (Central European Standard Time)","2022","2","11","1","9","1","fa52","21","male","right","20","22","70","19","7","","","","","fixation","","","",""
"564.3999999999942","img/image_stim_f_stroop.png","70","image-keyboard-response","18","109056","0.0-9.0-1.4","ktga6e","Fri Feb 11 2022 01:09:01 GMT+0100 (Central European Standard Time)","2022","2","11","1","9","1","fa52","21","male","right","20","22","70","19","7","","","","","test","fear","happy","f","true"
"null","<div style=""font-size:60px;"">+</div>","null","html-keyboard-response","19","109811","0.0-9.0-0.5","ktga6e","Fri Feb 11 2022 01:09:01 GMT+0100 (Central European Standard Time)","2022","2","11","1","9","1","fa52","21","male","right","20","22","70","19","7","","","","","fixation","","","",""
"483.79999999998836","img/image_stim_h_stroop.png","72","image-keyboard-response","20","110297","0.0-9.0-1.5","ktga6e","Fri Feb 11 2022 01:09:01 GMT+0100 (Central European Standard Time)","2022","2","11","1","9","1","fa52","21","male","right","20","22","70","19","7","","","","","test","happy","fear","h","true"
"null","<div style=""font-size:60px;"">+</div>","null","html-keyboard-response","21","112049","0.0-9.0-0.6","ktga6e","Fri Feb 11 2022 01:09:01 GMT+0100 (Central European Standard Time)","2022","2","11","1","9","1","fa52","21","male","right","20","22","70","19","7","","","","","fixation","","","",""
"509.3999999999942","img/image_stim_h.png","70","image-keyboard-response","22","112560","0.0-9.0-1.6","ktga6e","Fri Feb 11 2022 01:09:01 GMT+0100 (Central European Standard Time)","2022","2","11","1","9","1","fa52","21","male","right","20","22","70","19","7","","","","","test","happy","happy","h","false"
"null","<div style=""font-size:60px;"">+</div>","null","html-keyboard-response","23","114562","0.0-9.0-0.7","ktga6e","Fri Feb 11 2022 01:09:01 GMT+0100 (Central European Standard Time)","2022","2","11","1","9","1","fa52","21","male","right","20","22","70","19","7","","","","","fixation","","","",""
"540.6999999999825","img/image_stim_f.png","70","image-keyboard-response","24","115104","0.0-9.0-1.7","ktga6e","Fri Feb 11 2022 01:09:01 GMT+0100 (Central European Standard Time)","2022","2","11","1","9","1","fa52","21","male","right","20","22","70","19","7","","","","","test","fear","fear","f","true"
"null","<div style=""font-size:60px;"">+</div>","null","html-keyboard-response","25","117107","0.0-9.0-0.8","ktga6e","Fri Feb 11 2022 01:09:01 GMT+0100 (Central European Standard Time)","2022","2","11","1","9","1","fa52","21","male","right","20","22","70","19","7","","","","","fixation","","","",""
"564.6000000000058","img/image_stim_f.png","70","image-keyboard-response","26","117672","0.0-9.0-1.8","ktga6e","Fri Feb 11 2022 01:09:01 GMT+0100 (Central European Standard Time)","2022","2","11","1","9","1","fa52","21","male","right","20","22","70","19","7","","","","","test","fear","fear","f","true"
"null","<div style=""font-size:60px;"">+</div>","null","html-keyboard-response","27","118425","0.0-9.0-0.9","ktga6e","Fri Feb 11 2022 01:09:01 GMT+0100 (Central European Standard Time)","2022","2","11","1","9","1","fa52","21","male","right","20","22","70","19","7","","","","","fixation","","","",""
"446","img/image_stim_h.png","72","image-keyboard-response","28","118873","0.0-9.0-1.9","ktga6e","Fri Feb 11 2022 01:09:01 GMT+0100 (Central European Standard Time)","2022","2","11","1","9","1","fa52","21","male","right","20","22","70","19","7","","","","","test","happy","happy","h","true"
"null","<div style=""font-size:60px;"">+</div>","null","html-keyboard-response","29","119125","0.0-9.0-0.10","ktga6e","Fri Feb 11 2022 01:09:01 GMT+0100 (Central European Standard Time)","2022","2","11","1","9","1","fa52","21","male","right","20","22","70","19","7","","","","","fixation","","","",""
"505.70000000001164","img/image_stim_h_stroop.png","72","image-keyboard-response","30","119633","0.0-9.0-1.10","ktga6e","Fri Feb 11 2022 01:09:01 GMT+0100 (Central European Standard Time)","2022","2","11","1","9","1","fa52","21","male","right","20","22","70","19","7","","","","","test","happy","fear","h","true"
"null","<div style=""font-size:60px;"">+</div>","null","html-keyboard-response","31","121636","0.0-9.0-0.11","ktga6e","Fri Feb 11 2022 01:09:01 GMT+0100 (Central European Standard Time)","2022","2","11","1","9","1","fa52","21","male","right","20","22","70","19","7","","","","","fixation","","","",""
"354.8999999999942","img/image_stim_f_stroop.png","70","image-keyboard-response","32","121993","0.0-9.0-1.11","ktga6e","Fri Feb 11 2022 01:09:01 GMT+0100 (Central European Standard Time)","2022","2","11","1","9","1","fa52","21","male","right","20","22","70","19","7","","","","","test","fear","happy","f","true"
"null","<div style=""font-size:60px;"">+</div>","null","html-keyboard-response","33","123250","0.0-9.0-0.12","ktga6e","Fri Feb 11 2022 01:09:01 GMT+0100 (Central European Standard Time)","2022","2","11","1","9","1","fa52","21","male","right","20","22","70","19","7","","","","","fixation","","","",""
"445.30000000001746","img/image_stim_h.png","72","image-keyboard-response","34","123696","0.0-9.0-1.12","ktga6e","Fri Feb 11 2022 01:09:01 GMT+0100 (Central European Standard Time)","2022","2","11","1","9","1","fa52","21","male","right","20","22","70","19","7","","","","","test","happy","happy","h","true"
"null","<div style=""font-size:60px;"">+</div>","null","html-keyboard-response","35","124950","0.0-9.0-0.13","ktga6e","Fri Feb 11 2022 01:09:01 GMT+0100 (Central European Standard Time)","2022","2","11","1","9","1","fa52","21","male","right","20","22","70","19","7","","","","","fixation","","","",""
"449.20000000001164","img/image_stim_f_stroop.png","70","image-keyboard-response","36","125400","0.0-9.0-1.13","ktga6e","Fri Feb 11 2022 01:09:01 GMT+0100 (Central European Standard Time)","2022","2","11","1","9","1","fa52","21","male","right","20","22","70","19","7","","","","","test","fear","happy","f","true"
"null","<div style=""font-size:60px;"">+</div>","null","html-keyboard-response","37","126153","0.0-9.0-0.14","ktga6e","Fri Feb 11 2022 01:09:01 GMT+0100 (Central European Standard Time)","2022","2","11","1","9","1","fa52","21","male","right","20","22","70","19","7","","","","","fixation","","","",""
"422.6000000000058","img/image_stim_f.png","70","image-keyboard-response","38","126577","0.0-9.0-1.14","ktga6e","Fri Feb 11 2022 01:09:01 GMT+0100 (Central European Standard Time)","2022","2","11","1","9","1","fa52","21","male","right","20","22","70","19","7","","","","","test","fear","fear","f","true"
"null","<div style=""font-size:60px;"">+</div>","null","html-keyboard-response","39","127579","0.0-9.0-0.15","ktga6e","Fri Feb 11 2022 01:09:01 GMT+0100 (Central European Standard Time)","2022","2","11","1","9","1","fa52","21","male","right","20","22","70","19","7","","","","","fixation","","","",""
"444.29999999998836","img/image_stim_h_stroop.png","72","image-keyboard-response","40","128025","0.0-9.0-1.15","ktga6e","Fri Feb 11 2022 01:09:01 GMT+0100 (Central European Standard Time)","2022","2","11","1","9","1","fa52","21","male","right","20","22","70","19","7","","","","","test","happy","fear","h","true"
"null","<div style=""font-size:60px;"">+</div>","null","html-keyboard-response","41","129279","0.0-9.0-0.16","ktga6e","Fri Feb 11 2022 01:09:01 GMT+0100 (Central European Standard Time)","2022","2","11","1","9","1","fa52","21","male","right","20","22","70","19","7","","","","","fixation","","","",""
"417.0999999999767","img/image_stim_f_stroop.png","72","image-keyboard-response","42","129697","0.0-9.0-1.16","ktga6e","Fri Feb 11 2022 01:09:01 GMT+0100 (Central European Standard Time)","2022","2","11","1","9","1","fa52","21","male","right","20","22","70","19","7","","","","","test","fear","happy","f","false"
"null","<div style=""font-size:60px;"">+</div>","null","html-keyboard-response","43","131201","0.0-9.0-0.17","ktga6e","Fri Feb 11 2022 01:09:01 GMT+0100 (Central European Standard Time)","2022","2","11","1","9","1","fa52","21","male","right","20","22","70","19","7","","","","","fixation","","","",""
"574.3999999999942","img/image_stim_h_stroop.png","72","image-keyboard-response","44","131777","0.0-9.0-1.17","ktga6e","Fri Feb 11 2022 01:09:01 GMT+0100 (Central European Standard Time)","2022","2","11","1","9","1","fa52","21","male","right","20","22","70","19","7","","","","","test","happy","fear","h","true"
"null","<div style=""font-size:60px;"">+</div>","null","html-keyboard-response","45","132036","0.0-9.0-0.18","ktga6e","Fri Feb 11 2022 01:09:01 GMT+0100 (Central European Standard Time)","2022","2","11","1","9","1","fa52","21","male","right","20","22","70","19","7","","","","","fixation","","","",""
"490.9000000000233","img/image_stim_f.png","70","image-keyboard-response","46","132528","0.0-9.0-1.18","ktga6e","Fri Feb 11 2022 01:09:01 GMT+0100 (Central European Standard Time)","2022","2","11","1","9","1","fa52","21","male","right","20","22","70","19","7","","","","","test","fear","fear","f","true"
"null","<div style=""font-size:60px;"">+</div>","null","html-keyboard-response","47","134531","0.0-9.0-0.19","ktga6e","Fri Feb 11 2022 01:09:01 GMT+0100 (Central European Standard Time)","2022","2","11","1","9","1","fa52","21","male","right","20","22","70","19","7","","","","","fixation","","","",""
"500.1000000000058","img/image_stim_h.png","72","image-keyboard-response","48","135033","0.0-9.0-1.19","ktga6e","Fri Feb 11 2022 01:09:01 GMT+0100 (Central European Standard Time)","2022","2","11","1","9","1","fa52","21","male","right","20","22","70","19","7","","","","","test","happy","happy","h","true"
"null","<div style=""font-size:60px;"">+</div>","null","html-keyboard-response","49","135286","0.0-9.0-0.20","ktga6e","Fri Feb 11 2022 01:09:01 GMT+0100 (Central European Standard Time)","2022","2","11","1","9","1","fa52","21","male","right","20","22","70","19","7","","","","","fixation","","","",""
"425","img/image_stim_f_stroop.png","70","image-keyboard-response","50","135712","0.0-9.0-1.20","ktga6e","Fri Feb 11 2022 01:09:01 GMT+0100 (Central European Standard Time)","2022","2","11","1","9","1","fa52","21","male","right","20","22","70","19","7","","","","","test","fear","happy","f","true"
"null","<div style=""font-size:60px;"">+</div>","null","html-keyboard-response","51","137465","0.0-9.0-0.21","ktga6e","Fri Feb 11 2022 01:09:01 GMT+0100 (Central European Standard Time)","2022","2","11","1","9","1","fa52","21","male","right","20","22","70","19","7","","","","","fixation","","","",""
"461.70000000001164","img/image_stim_h_stroop.png","70","image-keyboard-response","52","137928","0.0-9.0-1.21","ktga6e","Fri Feb 11 2022 01:09:01 GMT+0100 (Central European Standard Time)","2022","2","11","1","9","1","fa52","21","male","right","20","22","70","19","7","","","","","test","happy","fear","h","false"
"null","<div style=""font-size:60px;"">+</div>","null","html-keyboard-response","53","139181","0.0-9.0-0.22","ktga6e","Fri Feb 11 2022 01:09:01 GMT+0100 (Central European Standard Time)","2022","2","11","1","9","1","fa52","21","male","right","20","22","70","19","7","","","","","fixation","","","",""
"570.1000000000058","img/image_stim_h.png","72","image-keyboard-response","54","139753","0.0-9.0-1.22","ktga6e","Fri Feb 11 2022 01:09:01 GMT+0100 (Central European Standard Time)","2022","2","11","1","9","1","fa52","21","male","right","20","22","70","19","7","","","","","test","happy","happy","h","true"
"null","<div style=""font-size:60px;"">+</div>","null","html-keyboard-response","55","140505","0.0-9.0-0.23","ktga6e","Fri Feb 11 2022 01:09:01 GMT+0100 (Central European Standard Time)","2022","2","11","1","9","1","fa52","21","male","right","20","22","70","19","7","","","","","fixation","","","",""
"502.0999999999767","img/image_stim_f.png","70","image-keyboard-response","56","141008","0.0-9.0-1.23","ktga6e","Fri Feb 11 2022 01:09:01 GMT+0100 (Central European Standard Time)","2022","2","11","1","9","1","fa52","21","male","right","20","22","70","19","7","","","","","test","fear","fear","f","true"
"null","<div style=""font-size:60px;"">+</div>","null","html-keyboard-response","57","141261","0.0-9.0-0.24","ktga6e","Fri Feb 11 2022 01:09:01 GMT+0100 (Central European Standard Time)","2022","2","11","1","9","1","fa52","21","male","right","20","22","70","19","7","","","","","fixation","","","",""
"666.7000000000116","img/image_stim_f_stroop.png","70","image-keyboard-response","58","141929","0.0-9.0-1.24","ktga6e","Fri Feb 11 2022 01:09:01 GMT+0100 (Central European Standard Time)","2022","2","11","1","9","1","fa52","21","male","right","20","22","70","19","7","","","","","test","fear","happy","f","true"
"null","<div style=""font-size:60px;"">+</div>","null","html-keyboard-response","59","142933","0.0-9.0-0.25","ktga6e","Fri Feb 11 2022 01:09:01 GMT+0100 (Central European Standard Time)","2022","2","11","1","9","1","fa52","21","male","right","20","22","70","19","7","","","","","fixation","","","",""
"402.29999999998836","img/image_stim_h_stroop.png","72","image-keyboard-response","60","143336","0.0-9.0-1.25","ktga6e","Fri Feb 11 2022 01:09:01 GMT+0100 (Central European Standard Time)","2022","2","11","1","9","1","fa52","21","male","right","20","22","70","19","7","","","","","test","happy","fear","h","true"
"null","<div style=""font-size:60px;"">+</div>","null","html-keyboard-response","61","144840","0.0-9.0-0.26","ktga6e","Fri Feb 11 2022 01:09:01 GMT+0100 (Central European Standard Time)","2022","2","11","1","9","1","fa52","21","male","right","20","22","70","19","7","","","","","fixation","","","",""
"455.6000000000058","img/image_stim_h.png","72","image-keyboard-response","62","145297","0.0-9.0-1.26","ktga6e","Fri Feb 11 2022 01:09:01 GMT+0100 (Central European Standard Time)","2022","2","11","1","9","1","fa52","21","male","right","20","22","70","19","7","","","","","test","happy","happy","h","true"
"null","<div style=""font-size:60px;"">+</div>","null","html-keyboard-response","63","146800","0.0-9.0-0.27","ktga6e","Fri Feb 11 2022 01:09:01 GMT+0100 (Central European Standard Time)","2022","2","11","1","9","1","fa52","21","male","right","20","22","70","19","7","","","","","fixation","","","",""
"590.8000000000175","img/image_stim_f.png","70","image-keyboard-response","64","147393","0.0-9.0-1.27","ktga6e","Fri Feb 11 2022 01:09:01 GMT+0100 (Central European Standard Time)","2022","2","11","1","9","1","fa52","21","male","right","20","22","70","19","7","","","","","test","fear","fear","f","true"
"null","<div style=""font-size:60px;"">+</div>","null","html-keyboard-response","65","149396","0.0-9.0-0.28","ktga6e","Fri Feb 11 2022 01:09:01 GMT+0100 (Central European Standard Time)","2022","2","11","1","9","1","fa52","21","male","right","20","22","70","19","7","","","","","fixation","","","",""
"395.6000000000058","img/image_stim_h_stroop.png","72","image-keyboard-response","66","149793","0.0-9.0-1.28","ktga6e","Fri Feb 11 2022 01:09:01 GMT+0100 (Central European Standard Time)","2022","2","11","1","9","1","fa52","21","male","right","20","22","70","19","7","","","","","test","happy","fear","h","true"
"null","<div style=""font-size:60px;"">+</div>","null","html-keyboard-response","67","150546","0.0-9.0-0.29","ktga6e","Fri Feb 11 2022 01:09:01 GMT+0100 (Central European Standard Time)","2022","2","11","1","9","1","fa52","21","male","right","20","22","70","19","7","","","","","fixation","","","",""
"437.70000000001164","img/image_stim_f.png","70","image-keyboard-response","68","150985","0.0-9.0-1.29","ktga6e","Fri Feb 11 2022 01:09:01 GMT+0100 (Central European Standard Time)","2022","2","11","1","9","1","fa52","21","male","right","20","22","70","19","7","","","","","test","fear","fear","f","true"
"null","<div style=""font-size:60px;"">+</div>","null","html-keyboard-response","69","151740","0.0-9.0-0.30","ktga6e","Fri Feb 11 2022 01:09:01 GMT+0100 (Central European Standard Time)","2022","2","11","1","9","1","fa52","21","male","right","20","22","70","19","7","","","","","fixation","","","",""
"347.4000000000233","img/image_stim_h.png","72","image-keyboard-response","70","152089","0.0-9.0-1.30","ktga6e","Fri Feb 11 2022 01:09:01 GMT+0100 (Central European Standard Time)","2022","2","11","1","9","1","fa52","21","male","right","20","22","70","19","7","","","","","test","happy","happy","h","true"
"null","<div style=""font-size:60px;"">+</div>","null","html-keyboard-response","71","152593","0.0-9.0-0.31","ktga6e","Fri Feb 11 2022 01:09:01 GMT+0100 (Central European Standard Time)","2022","2","11","1","9","1","fa52","21","male","right","20","22","70","19","7","","","","","fixation","","","",""
"543.2999999999884","img/image_stim_f_stroop.png","70","image-keyboard-response","72","153137","0.0-9.0-1.31","ktga6e","Fri Feb 11 2022 01:09:01 GMT+0100 (Central European Standard Time)","2022","2","11","1","9","1","fa52","21","male","right","20","22","70","19","7","","","","","test","fear","happy","f","true"
"null","<div style=""font-size:60px;"">+</div>","null","html-keyboard-response","73","153891","0.0-9.0-0.32","ktga6e","Fri Feb 11 2022 01:09:01 GMT+0100 (Central European Standard Time)","2022","2","11","1","9","1","fa52","21","male","right","20","22","70","19","7","","","","","fixation","","","",""
"1061.7999999999884","img/image_stim_f_stroop.png","70","image-keyboard-response","74","154954","0.0-9.0-1.32","ktga6e","Fri Feb 11 2022 01:09:01 GMT+0100 (Central European Standard Time)","2022","2","11","1","9","1","fa52","21","male","right","20","22","70","19","7","","","","","test","fear","happy","f","true"
"null","<div style=""font-size:60px;"">+</div>","null","html-keyboard-response","75","155458","0.0-9.0-0.33","ktga6e","Fri Feb 11 2022 01:09:01 GMT+0100 (Central European Standard Time)","2022","2","11","1","9","1","fa52","21","male","right","20","22","70","19","7","","","","","fixation","","","",""
"518.2000000000116","img/image_stim_h_stroop.png","72","image-keyboard-response","76","155977","0.0-9.0-1.33","ktga6e","Fri Feb 11 2022 01:09:01 GMT+0100 (Central European Standard Time)","2022","2","11","1","9","1","fa52","21","male","right","20","22","70","19","7","","","","","test","happy","fear","h","true"
"null","<div style=""font-size:60px;"">+</div>","null","html-keyboard-response","77","156981","0.0-9.0-0.34","ktga6e","Fri Feb 11 2022 01:09:01 GMT+0100 (Central European Standard Time)","2022","2","11","1","9","1","fa52","21","male","right","20","22","70","19","7","","","","","fixation","","","",""
"522.3999999999651","img/image_stim_f.png","70","image-keyboard-response","78","157505","0.0-9.0-1.34","ktga6e","Fri Feb 11 2022 01:09:01 GMT+0100 (Central European Standard Time)","2022","2","11","1","9","1","fa52","21","male","right","20","22","70","19","7","","","","","test","fear","fear","f","true"
"null","<div style=""font-size:60px;"">+</div>","null","html-keyboard-response","79","158009","0.0-9.0-0.35","ktga6e","Fri Feb 11 2022 01:09:01 GMT+0100 (Central European Standard Time)","2022","2","11","1","9","1","fa52","21","male","right","20","22","70","19","7","","","","","fixation","","","",""
"398.6000000000349","img/image_stim_h.png","70","image-keyboard-response","80","158408","0.0-9.0-1.35","ktga6e","Fri Feb 11 2022 01:09:01 GMT+0100 (Central European Standard Time)","2022","2","11","1","9","1","fa52","21","male","right","20","22","70","19","7","","","","","test","happy","happy","h","false"
