"rt","stimulus","key_press","trial_type","trial_index","time_elapsed","internal_node_id","exp_id","Time","year","month","date","hour","minute","seconds","id","age","Gender","Handedness","mood","fresh","H_since_Sleep","H_since_Eat","responses","question_order","slider_start","response","test_part","face","word","correct_response","correct"
"24738.669999991544","<p>Welcome to this experiment on daily rhythms and cognition.</p><p>First you will be asked some questions about yourself.</p><p>Then a short experiment will measure your response time.</p><p>Take the test at different times of the day/night.</p><p>The test is anonymous, but comparing your data across time is important.</p><p>Therefore, please make up and remember a personal ID (two letters+ two numbers).</p><p>Use this ID whenever taking the test.</p><p><strong>Press any key to begin.</strong></p>","70","html-keyboard-response","0","24739","0.0-0.0","3w9uyz","Sun Feb 07 2021 11:29:37 GMT+0100 (Central European Standard Time)","2021","2","7","11","29","37","mw73","47","male","right","65","61","4","2","","","","","","","","",""
"8368.734999967273","","","survey-text","1","33110","0.0-1.0","3w9uyz","Sun Feb 07 2021 11:29:37 GMT+0100 (Central European Standard Time)","2021","2","7","11","29","37","mw73","47","male","right","65","61","4","2","{""Q0"":""mw73""}","","","","","","","",""
"5909.894999989774","","","survey-text","2","39022","0.0-2.0","3w9uyz","Sun Feb 07 2021 11:29:37 GMT+0100 (Central European Standard Time)","2021","2","7","11","29","37","mw73","47","male","right","65","61","4","2","{""Q0"":""47""}","","","","","","","",""
"4131.114999996498","","","survey-multi-select","3","43155","0.0-3.0","3w9uyz","Sun Feb 07 2021 11:29:37 GMT+0100 (Central European Standard Time)","2021","2","7","11","29","37","mw73","47","male","right","65","61","4","2","{""Gender"":[""male""],""Hand"":[""right""]}","[0,1]","","","","","","",""
"4787.710000004154","<p>How Sad/Angry or Happy are you right now?</p>","","html-slider-response","4","47944","0.0-4.0","3w9uyz","Sun Feb 07 2021 11:29:37 GMT+0100 (Central European Standard Time)","2021","2","7","11","29","37","mw73","47","male","right","65","61","4","2","","","50","65","","","","",""
"3468.720000004396","<p>How Tired/Sleepy/Distracted or Fresh/Awake/Alert are you right now?</p>","","html-slider-response","5","51414","0.0-5.0","3w9uyz","Sun Feb 07 2021 11:29:37 GMT+0100 (Central European Standard Time)","2021","2","7","11","29","37","mw73","47","male","right","65","61","4","2","","","50","61","","","","",""
"6499.974999984261","","","survey-multi-select","6","57927","0.0-6.0","3w9uyz","Sun Feb 07 2021 11:29:37 GMT+0100 (Central European Standard Time)","2021","2","7","11","29","37","mw73","47","male","right","65","61","4","2","{""Sleep"":[""4""],""Eat"":[""2""]}","[0,1]","","","","","","",""
"35081.82000002125","<p>In this experiment, a face and a word will appear in the center of the screen.</p><p>If the face is <strong>happy</strong>, press the letter <strong>H</strong> with <strong>right</strong> index finger.</p><p>If the face is <strong>fearful</strong>, press the letter <strong>F</strong> with <strong>left</strong> index finger.</p><p>Respond as fast as possible while being correct. <strong>Ignore</strong> the written words. </p><div style='width: 900px;'><div style='float: left;'><img src='img/stimuli_stroop_happy.png'></img><p class='small'><strong>Press the H key for happy faces</strong></p></div><div class='float: right;'><img src='img/stimuli_stroop_fear.png'></img><p class='small'><strong>Press the F key for faces with fear</strong></p></div></div><p>If the screen turns blank, press <strong>SPACE</strong></p><p><strong>Press any key to begin.</strong></p>","32","html-keyboard-response","7","93010","0.0-7.0","3w9uyz","Sun Feb 07 2021 11:29:37 GMT+0100 (Central European Standard Time)","2021","2","7","11","29","37","mw73","47","male","right","65","61","4","2","","","","","","","","",""
"null","<div style=""font-size:60px;"">+</div>","null","html-keyboard-response","8","97013","0.0-8.0-0.0","3w9uyz","Sun Feb 07 2021 11:29:37 GMT+0100 (Central European Standard Time)","2021","2","7","11","29","37","mw73","47","male","right","65","61","4","2","","","","","fixation","","","",""
"593.3249999652617","img/image_stim_h.png","32","image-keyboard-response","9","97608","0.0-8.0-1.0","3w9uyz","Sun Feb 07 2021 11:29:37 GMT+0100 (Central European Standard Time)","2021","2","7","11","29","37","mw73","47","male","right","65","61","4","2","","","","","test","happy","happy","h","false"
"null","<div style=""font-size:60px;"">+</div>","null","html-keyboard-response","10","99365","0.0-8.0-0.1","3w9uyz","Sun Feb 07 2021 11:29:37 GMT+0100 (Central European Standard Time)","2021","2","7","11","29","37","mw73","47","male","right","65","61","4","2","","","","","fixation","","","",""
"1674.890000023879","img/image_stim_h_stroop.png","32","image-keyboard-response","11","101041","0.0-8.0-1.1","3w9uyz","Sun Feb 07 2021 11:29:37 GMT+0100 (Central European Standard Time)","2021","2","7","11","29","37","mw73","47","male","right","65","61","4","2","","","","","test","happy","fear","h","false"
"null","<div style=""font-size:60px;"">+</div>","null","html-keyboard-response","12","102045","0.0-8.0-0.2","3w9uyz","Sun Feb 07 2021 11:29:37 GMT+0100 (Central European Standard Time)","2021","2","7","11","29","37","mw73","47","male","right","65","61","4","2","","","","","fixation","","","",""
"1612.5400000019","img/image_stim_f_stroop.png","32","image-keyboard-response","13","103659","0.0-8.0-1.2","3w9uyz","Sun Feb 07 2021 11:29:37 GMT+0100 (Central European Standard Time)","2021","2","7","11","29","37","mw73","47","male","right","65","61","4","2","","","","","test","fear","happy","f","false"
"null","<div style=""font-size:60px;"">+</div>","null","html-keyboard-response","14","104415","0.0-8.0-0.3","3w9uyz","Sun Feb 07 2021 11:29:37 GMT+0100 (Central European Standard Time)","2021","2","7","11","29","37","mw73","47","male","right","65","61","4","2","","","","","fixation","","","",""
"1977.2099999827333","img/image_stim_f.png","32","image-keyboard-response","15","106393","0.0-8.0-1.3","3w9uyz","Sun Feb 07 2021 11:29:37 GMT+0100 (Central European Standard Time)","2021","2","7","11","29","37","mw73","47","male","right","65","61","4","2","","","","","test","fear","fear","f","false"
"null","<div style=""font-size:60px;"">+</div>","null","html-keyboard-response","16","108399","0.0-8.0-0.4","3w9uyz","Sun Feb 07 2021 11:29:37 GMT+0100 (Central European Standard Time)","2021","2","7","11","29","37","mw73","47","male","right","65","61","4","2","","","","","fixation","","","",""
"994.3099999800324","img/image_stim_h_stroop.png","72","image-keyboard-response","17","109395","0.0-8.0-1.4","3w9uyz","Sun Feb 07 2021 11:29:37 GMT+0100 (Central European Standard Time)","2021","2","7","11","29","37","mw73","47","male","right","65","61","4","2","","","","","test","happy","fear","h","true"
"null","<div style=""font-size:60px;"">+</div>","null","html-keyboard-response","18","110899","0.0-8.0-0.5","3w9uyz","Sun Feb 07 2021 11:29:37 GMT+0100 (Central European Standard Time)","2021","2","7","11","29","37","mw73","47","male","right","65","61","4","2","","","","","fixation","","","",""
"720.2099999994971","img/image_stim_f_stroop.png","70","image-keyboard-response","19","111621","0.0-8.0-1.5","3w9uyz","Sun Feb 07 2021 11:29:37 GMT+0100 (Central European Standard Time)","2021","2","7","11","29","37","mw73","47","male","right","65","61","4","2","","","","","test","fear","happy","f","true"
"null","<div style=""font-size:60px;"">+</div>","null","html-keyboard-response","20","112123","0.0-8.0-0.6","3w9uyz","Sun Feb 07 2021 11:29:37 GMT+0100 (Central European Standard Time)","2021","2","7","11","29","37","mw73","47","male","right","65","61","4","2","","","","","fixation","","","",""
"777.6050000102259","img/image_stim_f.png","70","image-keyboard-response","21","112902","0.0-8.0-1.6","3w9uyz","Sun Feb 07 2021 11:29:37 GMT+0100 (Central European Standard Time)","2021","2","7","11","29","37","mw73","47","male","right","65","61","4","2","","","","","test","fear","fear","f","true"
"null","<div style=""font-size:60px;"">+</div>","null","html-keyboard-response","22","113659","0.0-8.0-0.7","3w9uyz","Sun Feb 07 2021 11:29:37 GMT+0100 (Central European Standard Time)","2021","2","7","11","29","37","mw73","47","male","right","65","61","4","2","","","","","fixation","","","",""
"691.4700000197627","img/image_stim_h.png","72","image-keyboard-response","23","114351","0.0-8.0-1.7","3w9uyz","Sun Feb 07 2021 11:29:37 GMT+0100 (Central European Standard Time)","2021","2","7","11","29","37","mw73","47","male","right","65","61","4","2","","","","","test","happy","happy","h","true"
"null","<div style=""font-size:60px;"">+</div>","null","html-keyboard-response","24","116103","0.0-8.0-0.8","3w9uyz","Sun Feb 07 2021 11:29:37 GMT+0100 (Central European Standard Time)","2021","2","7","11","29","37","mw73","47","male","right","65","61","4","2","","","","","fixation","","","",""
"701.8999999854714","img/image_stim_f.png","70","image-keyboard-response","25","116806","0.0-8.0-1.8","3w9uyz","Sun Feb 07 2021 11:29:37 GMT+0100 (Central European Standard Time)","2021","2","7","11","29","37","mw73","47","male","right","65","61","4","2","","","","","test","fear","fear","f","true"
"null","<div style=""font-size:60px;"">+</div>","null","html-keyboard-response","26","117560","0.0-8.0-0.9","3w9uyz","Sun Feb 07 2021 11:29:37 GMT+0100 (Central European Standard Time)","2021","2","7","11","29","37","mw73","47","male","right","65","61","4","2","","","","","fixation","","","",""
"590.6850000028498","img/image_stim_h_stroop.png","72","image-keyboard-response","27","118152","0.0-8.0-1.9","3w9uyz","Sun Feb 07 2021 11:29:37 GMT+0100 (Central European Standard Time)","2021","2","7","11","29","37","mw73","47","male","right","65","61","4","2","","","","","test","happy","fear","h","true"
"null","<div style=""font-size:60px;"">+</div>","null","html-keyboard-response","28","119161","0.0-8.0-0.10","3w9uyz","Sun Feb 07 2021 11:29:37 GMT+0100 (Central European Standard Time)","2021","2","7","11","29","37","mw73","47","male","right","65","61","4","2","","","","","fixation","","","",""
"642.6850000279956","img/image_stim_f_stroop.png","70","image-keyboard-response","29","119805","0.0-8.0-1.10","3w9uyz","Sun Feb 07 2021 11:29:37 GMT+0100 (Central European Standard Time)","2021","2","7","11","29","37","mw73","47","male","right","65","61","4","2","","","","","test","fear","happy","f","true"
"null","<div style=""font-size:60px;"">+</div>","null","html-keyboard-response","30","121560","0.0-8.0-0.11","3w9uyz","Sun Feb 07 2021 11:29:37 GMT+0100 (Central European Standard Time)","2021","2","7","11","29","37","mw73","47","male","right","65","61","4","2","","","","","fixation","","","",""
"644.704999984242","img/image_stim_h.png","72","image-keyboard-response","31","122206","0.0-8.0-1.11","3w9uyz","Sun Feb 07 2021 11:29:37 GMT+0100 (Central European Standard Time)","2021","2","7","11","29","37","mw73","47","male","right","65","61","4","2","","","","","test","happy","happy","h","true"
"null","<div style=""font-size:60px;"">+</div>","null","html-keyboard-response","32","123212","0.0-8.0-0.12","3w9uyz","Sun Feb 07 2021 11:29:37 GMT+0100 (Central European Standard Time)","2021","2","7","11","29","37","mw73","47","male","right","65","61","4","2","","","","","fixation","","","",""
"675.5700000212528","img/image_stim_f_stroop.png","70","image-keyboard-response","33","123889","0.0-8.0-1.12","3w9uyz","Sun Feb 07 2021 11:29:37 GMT+0100 (Central European Standard Time)","2021","2","7","11","29","37","mw73","47","male","right","65","61","4","2","","","","","test","fear","happy","f","true"
"null","<div style=""font-size:60px;"">+</div>","null","html-keyboard-response","34","125646","0.0-8.0-0.13","3w9uyz","Sun Feb 07 2021 11:29:37 GMT+0100 (Central European Standard Time)","2021","2","7","11","29","37","mw73","47","male","right","65","61","4","2","","","","","fixation","","","",""
"668.6899999622256","img/image_stim_h.png","72","image-keyboard-response","35","126316","0.0-8.0-1.13","3w9uyz","Sun Feb 07 2021 11:29:37 GMT+0100 (Central European Standard Time)","2021","2","7","11","29","37","mw73","47","male","right","65","61","4","2","","","","","test","happy","happy","h","true"
"null","<div style=""font-size:60px;"">+</div>","null","html-keyboard-response","36","127069","0.0-8.0-0.14","3w9uyz","Sun Feb 07 2021 11:29:37 GMT+0100 (Central European Standard Time)","2021","2","7","11","29","37","mw73","47","male","right","65","61","4","2","","","","","fixation","","","",""
"654.4499999727122","img/image_stim_f.png","70","image-keyboard-response","37","127725","0.0-8.0-1.14","3w9uyz","Sun Feb 07 2021 11:29:37 GMT+0100 (Central European Standard Time)","2021","2","7","11","29","37","mw73","47","male","right","65","61","4","2","","","","","test","fear","fear","f","true"
"null","<div style=""font-size:60px;"">+</div>","null","html-keyboard-response","38","129231","0.0-8.0-0.15","3w9uyz","Sun Feb 07 2021 11:29:37 GMT+0100 (Central European Standard Time)","2021","2","7","11","29","37","mw73","47","male","right","65","61","4","2","","","","","fixation","","","",""
"553.4599999664351","img/image_stim_h_stroop.png","72","image-keyboard-response","39","129786","0.0-8.0-1.15","3w9uyz","Sun Feb 07 2021 11:29:37 GMT+0100 (Central European Standard Time)","2021","2","7","11","29","37","mw73","47","male","right","65","61","4","2","","","","","test","happy","fear","h","true"
"null","<div style=""font-size:60px;"">+</div>","null","html-keyboard-response","40","131543","0.0-8.0-0.16","3w9uyz","Sun Feb 07 2021 11:29:37 GMT+0100 (Central European Standard Time)","2021","2","7","11","29","37","mw73","47","male","right","65","61","4","2","","","","","fixation","","","",""
"520.4900000244379","img/image_stim_h_stroop.png","72","image-keyboard-response","41","132065","0.0-8.0-1.16","3w9uyz","Sun Feb 07 2021 11:29:37 GMT+0100 (Central European Standard Time)","2021","2","7","11","29","37","mw73","47","male","right","65","61","4","2","","","","","test","happy","fear","h","true"
"null","<div style=""font-size:60px;"">+</div>","null","html-keyboard-response","42","132567","0.0-8.0-0.17","3w9uyz","Sun Feb 07 2021 11:29:37 GMT+0100 (Central European Standard Time)","2021","2","7","11","29","37","mw73","47","male","right","65","61","4","2","","","","","fixation","","","",""
"693.9949999796227","img/image_stim_f_stroop.png","70","image-keyboard-response","43","133262","0.0-8.0-1.17","3w9uyz","Sun Feb 07 2021 11:29:37 GMT+0100 (Central European Standard Time)","2021","2","7","11","29","37","mw73","47","male","right","65","61","4","2","","","","","test","fear","happy","f","true"
"null","<div style=""font-size:60px;"">+</div>","null","html-keyboard-response","44","134270","0.0-8.0-0.18","3w9uyz","Sun Feb 07 2021 11:29:37 GMT+0100 (Central European Standard Time)","2021","2","7","11","29","37","mw73","47","male","right","65","61","4","2","","","","","fixation","","","",""
"945.3600000124425","img/image_stim_f.png","70","image-keyboard-response","45","135216","0.0-8.0-1.18","3w9uyz","Sun Feb 07 2021 11:29:37 GMT+0100 (Central European Standard Time)","2021","2","7","11","29","37","mw73","47","male","right","65","61","4","2","","","","","test","fear","fear","f","true"
"null","<div style=""font-size:60px;"">+</div>","null","html-keyboard-response","46","136473","0.0-8.0-0.19","3w9uyz","Sun Feb 07 2021 11:29:37 GMT+0100 (Central European Standard Time)","2021","2","7","11","29","37","mw73","47","male","right","65","61","4","2","","","","","fixation","","","",""
"708.90500000678","img/image_stim_h.png","72","image-keyboard-response","47","137183","0.0-8.0-1.19","3w9uyz","Sun Feb 07 2021 11:29:37 GMT+0100 (Central European Standard Time)","2021","2","7","11","29","37","mw73","47","male","right","65","61","4","2","","","","","test","happy","happy","h","true"
"null","<div style=""font-size:60px;"">+</div>","null","html-keyboard-response","48","139187","0.0-8.0-0.20","3w9uyz","Sun Feb 07 2021 11:29:37 GMT+0100 (Central European Standard Time)","2021","2","7","11","29","37","mw73","47","male","right","65","61","4","2","","","","","fixation","","","",""
"926.9050000002608","img/image_stim_f_stroop.png","70","image-keyboard-response","49","140116","0.0-8.0-1.20","3w9uyz","Sun Feb 07 2021 11:29:37 GMT+0100 (Central European Standard Time)","2021","2","7","11","29","37","mw73","47","male","right","65","61","4","2","","","","","test","fear","happy","f","true"
"null","<div style=""font-size:60px;"">+</div>","null","html-keyboard-response","50","140869","0.0-8.0-0.21","3w9uyz","Sun Feb 07 2021 11:29:37 GMT+0100 (Central European Standard Time)","2021","2","7","11","29","37","mw73","47","male","right","65","61","4","2","","","","","fixation","","","",""
"568.680000025779","img/image_stim_h.png","72","image-keyboard-response","51","141439","0.0-8.0-1.21","3w9uyz","Sun Feb 07 2021 11:29:37 GMT+0100 (Central European Standard Time)","2021","2","7","11","29","37","mw73","47","male","right","65","61","4","2","","","","","test","happy","happy","h","true"
"null","<div style=""font-size:60px;"">+</div>","null","html-keyboard-response","52","143442","0.0-8.0-0.22","3w9uyz","Sun Feb 07 2021 11:29:37 GMT+0100 (Central European Standard Time)","2021","2","7","11","29","37","mw73","47","male","right","65","61","4","2","","","","","fixation","","","",""
"667.9599999915808","img/image_stim_f.png","70","image-keyboard-response","53","144111","0.0-8.0-1.22","3w9uyz","Sun Feb 07 2021 11:29:37 GMT+0100 (Central European Standard Time)","2021","2","7","11","29","37","mw73","47","male","right","65","61","4","2","","","","","test","fear","fear","f","true"
"null","<div style=""font-size:60px;"">+</div>","null","html-keyboard-response","54","145369","0.0-8.0-0.23","3w9uyz","Sun Feb 07 2021 11:29:37 GMT+0100 (Central European Standard Time)","2021","2","7","11","29","37","mw73","47","male","right","65","61","4","2","","","","","fixation","","","",""
"600.1299999770708","img/image_stim_h_stroop.png","72","image-keyboard-response","55","145970","0.0-8.0-1.23","3w9uyz","Sun Feb 07 2021 11:29:37 GMT+0100 (Central European Standard Time)","2021","2","7","11","29","37","mw73","47","male","right","65","61","4","2","","","","","test","happy","fear","h","true"
"null","<div style=""font-size:60px;"">+</div>","null","html-keyboard-response","56","147474","0.0-8.0-0.24","3w9uyz","Sun Feb 07 2021 11:29:37 GMT+0100 (Central European Standard Time)","2021","2","7","11","29","37","mw73","47","male","right","65","61","4","2","","","","","fixation","","","",""
"520.4199999570847","img/image_stim_h_stroop.png","72","image-keyboard-response","57","147996","0.0-8.0-1.24","3w9uyz","Sun Feb 07 2021 11:29:37 GMT+0100 (Central European Standard Time)","2021","2","7","11","29","37","mw73","47","male","right","65","61","4","2","","","","","test","happy","fear","h","true"
"null","<div style=""font-size:60px;"">+</div>","null","html-keyboard-response","58","148749","0.0-8.0-0.25","3w9uyz","Sun Feb 07 2021 11:29:37 GMT+0100 (Central European Standard Time)","2021","2","7","11","29","37","mw73","47","male","right","65","61","4","2","","","","","fixation","","","",""
"562.9850000259466","img/image_stim_f.png","70","image-keyboard-response","59","149312","0.0-8.0-1.25","3w9uyz","Sun Feb 07 2021 11:29:37 GMT+0100 (Central European Standard Time)","2021","2","7","11","29","37","mw73","47","male","right","65","61","4","2","","","","","test","fear","fear","f","true"
"null","<div style=""font-size:60px;"">+</div>","null","html-keyboard-response","60","149567","0.0-8.0-0.26","3w9uyz","Sun Feb 07 2021 11:29:37 GMT+0100 (Central European Standard Time)","2021","2","7","11","29","37","mw73","47","male","right","65","61","4","2","","","","","fixation","","","",""
"1235.4300000006333","img/image_stim_f_stroop.png","70","image-keyboard-response","61","150803","0.0-8.0-1.26","3w9uyz","Sun Feb 07 2021 11:29:37 GMT+0100 (Central European Standard Time)","2021","2","7","11","29","37","mw73","47","male","right","65","61","4","2","","","","","test","fear","happy","f","true"
"null","<div style=""font-size:60px;"">+</div>","null","html-keyboard-response","62","151058","0.0-8.0-0.27","3w9uyz","Sun Feb 07 2021 11:29:37 GMT+0100 (Central European Standard Time)","2021","2","7","11","29","37","mw73","47","male","right","65","61","4","2","","","","","fixation","","","",""
"689.6299999789335","img/image_stim_h.png","72","image-keyboard-response","63","151749","0.0-8.0-1.27","3w9uyz","Sun Feb 07 2021 11:29:37 GMT+0100 (Central European Standard Time)","2021","2","7","11","29","37","mw73","47","male","right","65","61","4","2","","","","","test","happy","happy","h","true"
"null","<div style=""font-size:60px;"">+</div>","null","html-keyboard-response","64","152005","0.0-8.0-0.28","3w9uyz","Sun Feb 07 2021 11:29:37 GMT+0100 (Central European Standard Time)","2021","2","7","11","29","37","mw73","47","male","right","65","61","4","2","","","","","fixation","","","",""
"956.1000000103377","img/image_stim_h.png","72","image-keyboard-response","65","152962","0.0-8.0-1.28","3w9uyz","Sun Feb 07 2021 11:29:37 GMT+0100 (Central European Standard Time)","2021","2","7","11","29","37","mw73","47","male","right","65","61","4","2","","","","","test","happy","happy","h","true"
"null","<div style=""font-size:60px;"">+</div>","null","html-keyboard-response","66","154219","0.0-8.0-0.29","3w9uyz","Sun Feb 07 2021 11:29:37 GMT+0100 (Central European Standard Time)","2021","2","7","11","29","37","mw73","47","male","right","65","61","4","2","","","","","fixation","","","",""
"653.0149999889545","img/image_stim_f_stroop.png","70","image-keyboard-response","67","154874","0.0-8.0-1.29","3w9uyz","Sun Feb 07 2021 11:29:37 GMT+0100 (Central European Standard Time)","2021","2","7","11","29","37","mw73","47","male","right","65","61","4","2","","","","","test","fear","happy","f","true"
"null","<div style=""font-size:60px;"">+</div>","null","html-keyboard-response","68","156631","0.0-8.0-0.30","3w9uyz","Sun Feb 07 2021 11:29:37 GMT+0100 (Central European Standard Time)","2021","2","7","11","29","37","mw73","47","male","right","65","61","4","2","","","","","fixation","","","",""
"768.915000022389","img/image_stim_f.png","70","image-keyboard-response","69","157403","0.0-8.0-1.30","3w9uyz","Sun Feb 07 2021 11:29:37 GMT+0100 (Central European Standard Time)","2021","2","7","11","29","37","mw73","47","male","right","65","61","4","2","","","","","test","fear","fear","f","true"
"null","<div style=""font-size:60px;"">+</div>","null","html-keyboard-response","70","158156","0.0-8.0-0.31","3w9uyz","Sun Feb 07 2021 11:29:37 GMT+0100 (Central European Standard Time)","2021","2","7","11","29","37","mw73","47","male","right","65","61","4","2","","","","","fixation","","","",""
"811.5350000443868","img/image_stim_h_stroop.png","72","image-keyboard-response","71","158968","0.0-8.0-1.31","3w9uyz","Sun Feb 07 2021 11:29:37 GMT+0100 (Central European Standard Time)","2021","2","7","11","29","37","mw73","47","male","right","65","61","4","2","","","","","test","happy","fear","h","true"
