"rt","stimulus","key_press","trial_type","trial_index","time_elapsed","internal_node_id","exp_id","Time","year","month","date","hour","minute","seconds","id","age","Gender","Handedness","mood","fresh","hunger","H_since_Sleep","H_since_Eat","responses","question_order","slider_start","response","test_part","face","word","correct_response","correct"
"31276.999999999996","<p>Welcome to this experiment on daily rhythms and cognition.</p><p>First you will be asked some questions about yourself.</p><p>Then a short experiment will measure your response time.</p><p>Take the test at different times of the day/night.</p><p>The test is anonymous, but comparing your data across time is important.</p><p>Therefore, please make up and remember a personal ID (two letters+ two numbers).</p><p>Use this ID whenever taking the test.</p><p><strong>Press any key to begin.</strong></p>","32","html-keyboard-response","0","31284","0.0-0.0","k8vv1y","Sat Feb 13 2021 11:18:42 GMT+0100 (CET)","2021","2","13","11","18","42","tx12","20","female","right","62","65","100","1","0","","","","","","","","",""
"6588","","","survey-text","1","37933","0.0-1.0","k8vv1y","Sat Feb 13 2021 11:18:42 GMT+0100 (CET)","2021","2","13","11","18","42","tx12","20","female","right","62","65","100","1","0","{""Q0"":""tx12""}","","","","","","","",""
"3207","","","survey-text","2","41149","0.0-2.0","k8vv1y","Sat Feb 13 2021 11:18:42 GMT+0100 (CET)","2021","2","13","11","18","42","tx12","20","female","right","62","65","100","1","0","{""Q0"":""20""}","","","","","","","",""
"4288","","","survey-multi-select","3","45443","0.0-3.0","k8vv1y","Sat Feb 13 2021 11:18:42 GMT+0100 (CET)","2021","2","13","11","18","42","tx12","20","female","right","62","65","100","1","0","{""Gender"":[""female""],""Hand"":[""right""]}","[0,1]","","","","","","",""
"4937.999999999993","<p>How Sad/Angry or Happy are you right now?</p>","","html-slider-response","4","50390","0.0-4.0","k8vv1y","Sat Feb 13 2021 11:18:42 GMT+0100 (CET)","2021","2","13","11","18","42","tx12","20","female","right","62","65","100","1","0","","","50","62","","","","",""
"9041","<p>How Tired/Sleepy/Distracted or Fresh/Awake/Alert are you right now?</p>","","html-slider-response","5","59432","0.0-5.0","k8vv1y","Sat Feb 13 2021 11:18:42 GMT+0100 (CET)","2021","2","13","11","18","42","tx12","20","female","right","62","65","100","1","0","","","50","65","","","","",""
"2605","<p>How Hungry or Satiated are you right now?</p>","","html-slider-response","6","62039","0.0-6.0","k8vv1y","Sat Feb 13 2021 11:18:42 GMT+0100 (CET)","2021","2","13","11","18","42","tx12","20","female","right","62","65","100","1","0","","","50","100","","","","",""
"11139","","","survey-multi-select","7","73198","0.0-7.0","k8vv1y","Sat Feb 13 2021 11:18:42 GMT+0100 (CET)","2021","2","13","11","18","42","tx12","20","female","right","62","65","100","1","0","{""Sleep"":[""1""],""Eat"":[""0""]}","[0,1]","","","","","","",""
"6636","<p>In this experiment, a face and a word will appear in the center of the screen.</p><p>If the face is <strong>happy</strong>, press the letter <strong>H</strong> with <strong>right</strong> index finger.</p><p>If the face is <strong>fearful</strong>, press the letter <strong>F</strong> with <strong>left</strong> index finger.</p><p><strong>Ignore the written words</strong>. Respond as fast as possible while being correct. </p><div style='width: 900px;'><div style='float: left;'><img src='img/stimuli_stroop_happy.png'></img><p class='small'><strong>Press the H key for happy faces</strong></p></div><div class='float: right;'><img src='img/stimuli_stroop_fear.png'></img><p class='small'><strong>Press the F key for faces with fear</strong></p></div></div><p>If the screen turns blank, press <strong>SPACE</strong></p><p><strong>Press any key to begin.</strong></p>","32","html-keyboard-response","8","79845","0.0-8.0","k8vv1y","Sat Feb 13 2021 11:18:42 GMT+0100 (CET)","2021","2","13","11","18","42","tx12","20","female","right","62","65","100","1","0","","","","","","","","",""
"null","<div style=""font-size:60px;"">+</div>","null","html-keyboard-response","9","82099","0.0-9.0-0.0","k8vv1y","Sat Feb 13 2021 11:18:42 GMT+0100 (CET)","2021","2","13","11","18","42","tx12","20","female","right","62","65","100","1","0","","","","","fixation","","","",""
"639.0000000000146","img/image_stim_f.png","70","image-keyboard-response","10","82752","0.0-9.0-1.0","k8vv1y","Sat Feb 13 2021 11:18:42 GMT+0100 (CET)","2021","2","13","11","18","42","tx12","20","female","right","62","65","100","1","0","","","","","test","fear","fear","f","true"
"null","<div style=""font-size:60px;"">+</div>","null","html-keyboard-response","11","84762","0.0-9.0-0.1","k8vv1y","Sat Feb 13 2021 11:18:42 GMT+0100 (CET)","2021","2","13","11","18","42","tx12","20","female","right","62","65","100","1","0","","","","","fixation","","","",""
"680","img/image_stim_f_stroop.png","70","image-keyboard-response","12","85448","0.0-9.0-1.1","k8vv1y","Sat Feb 13 2021 11:18:42 GMT+0100 (CET)","2021","2","13","11","18","42","tx12","20","female","right","62","65","100","1","0","","","","","test","fear","happy","f","true"
"null","<div style=""font-size:60px;"">+</div>","null","html-keyboard-response","13","85702","0.0-9.0-0.2","k8vv1y","Sat Feb 13 2021 11:18:42 GMT+0100 (CET)","2021","2","13","11","18","42","tx12","20","female","right","62","65","100","1","0","","","","","fixation","","","",""
"570","img/image_stim_h.png","72","image-keyboard-response","14","86280","0.0-9.0-1.2","k8vv1y","Sat Feb 13 2021 11:18:42 GMT+0100 (CET)","2021","2","13","11","18","42","tx12","20","female","right","62","65","100","1","0","","","","","test","happy","happy","h","true"
"null","<div style=""font-size:60px;"">+</div>","null","html-keyboard-response","15","86535","0.0-9.0-0.3","k8vv1y","Sat Feb 13 2021 11:18:42 GMT+0100 (CET)","2021","2","13","11","18","42","tx12","20","female","right","62","65","100","1","0","","","","","fixation","","","",""
"378","img/image_stim_h_stroop.png","72","image-keyboard-response","16","86918","0.0-9.0-1.3","k8vv1y","Sat Feb 13 2021 11:18:42 GMT+0100 (CET)","2021","2","13","11","18","42","tx12","20","female","right","62","65","100","1","0","","","","","test","happy","fear","h","true"
"null","<div style=""font-size:60px;"">+</div>","null","html-keyboard-response","17","87174","0.0-9.0-0.4","k8vv1y","Sat Feb 13 2021 11:18:42 GMT+0100 (CET)","2021","2","13","11","18","42","tx12","20","female","right","62","65","100","1","0","","","","","fixation","","","",""
"619","img/image_stim_f_stroop.png","70","image-keyboard-response","18","87797","0.0-9.0-1.4","k8vv1y","Sat Feb 13 2021 11:18:42 GMT+0100 (CET)","2021","2","13","11","18","42","tx12","20","female","right","62","65","100","1","0","","","","","test","fear","happy","f","true"
"null","<div style=""font-size:60px;"">+</div>","null","html-keyboard-response","19","88551","0.0-9.0-0.5","k8vv1y","Sat Feb 13 2021 11:18:42 GMT+0100 (CET)","2021","2","13","11","18","42","tx12","20","female","right","62","65","100","1","0","","","","","fixation","","","",""
"516","img/image_stim_h.png","72","image-keyboard-response","20","89069","0.0-9.0-1.5","k8vv1y","Sat Feb 13 2021 11:18:42 GMT+0100 (CET)","2021","2","13","11","18","42","tx12","20","female","right","62","65","100","1","0","","","","","test","happy","happy","h","true"
"null","<div style=""font-size:60px;"">+</div>","null","html-keyboard-response","21","91073","0.0-9.0-0.6","k8vv1y","Sat Feb 13 2021 11:18:42 GMT+0100 (CET)","2021","2","13","11","18","42","tx12","20","female","right","62","65","100","1","0","","","","","fixation","","","",""
"791.0000000000146","img/image_stim_h_stroop.png","72","image-keyboard-response","22","91868","0.0-9.0-1.6","k8vv1y","Sat Feb 13 2021 11:18:42 GMT+0100 (CET)","2021","2","13","11","18","42","tx12","20","female","right","62","65","100","1","0","","","","","test","happy","fear","h","true"
"null","<div style=""font-size:60px;"">+</div>","null","html-keyboard-response","23","92124","0.0-9.0-0.7","k8vv1y","Sat Feb 13 2021 11:18:42 GMT+0100 (CET)","2021","2","13","11","18","42","tx12","20","female","right","62","65","100","1","0","","","","","fixation","","","",""
"719.9999999999854","img/image_stim_f.png","70","image-keyboard-response","24","92846","0.0-9.0-1.7","k8vv1y","Sat Feb 13 2021 11:18:42 GMT+0100 (CET)","2021","2","13","11","18","42","tx12","20","female","right","62","65","100","1","0","","","","","test","fear","fear","f","true"
"null","<div style=""font-size:60px;"">+</div>","null","html-keyboard-response","25","93851","0.0-9.0-0.8","k8vv1y","Sat Feb 13 2021 11:18:42 GMT+0100 (CET)","2021","2","13","11","18","42","tx12","20","female","right","62","65","100","1","0","","","","","fixation","","","",""
"573","img/image_stim_f.png","70","image-keyboard-response","26","94428","0.0-9.0-1.8","k8vv1y","Sat Feb 13 2021 11:18:42 GMT+0100 (CET)","2021","2","13","11","18","42","tx12","20","female","right","62","65","100","1","0","","","","","test","fear","fear","f","true"
"null","<div style=""font-size:60px;"">+</div>","null","html-keyboard-response","27","95183","0.0-9.0-0.9","k8vv1y","Sat Feb 13 2021 11:18:42 GMT+0100 (CET)","2021","2","13","11","18","42","tx12","20","female","right","62","65","100","1","0","","","","","fixation","","","",""
"636","img/image_stim_h_stroop.png","72","image-keyboard-response","28","95822","0.0-9.0-1.9","k8vv1y","Sat Feb 13 2021 11:18:42 GMT+0100 (CET)","2021","2","13","11","18","42","tx12","20","female","right","62","65","100","1","0","","","","","test","happy","fear","h","true"
"null","<div style=""font-size:60px;"">+</div>","null","html-keyboard-response","29","96078","0.0-9.0-0.10","k8vv1y","Sat Feb 13 2021 11:18:42 GMT+0100 (CET)","2021","2","13","11","18","42","tx12","20","female","right","62","65","100","1","0","","","","","fixation","","","",""
"403","img/image_stim_h.png","72","image-keyboard-response","30","96484","0.0-9.0-1.10","k8vv1y","Sat Feb 13 2021 11:18:42 GMT+0100 (CET)","2021","2","13","11","18","42","tx12","20","female","right","62","65","100","1","0","","","","","test","happy","happy","h","true"
"null","<div style=""font-size:60px;"">+</div>","null","html-keyboard-response","31","96991","0.0-9.0-0.11","k8vv1y","Sat Feb 13 2021 11:18:42 GMT+0100 (CET)","2021","2","13","11","18","42","tx12","20","female","right","62","65","100","1","0","","","","","fixation","","","",""
"580","img/image_stim_f_stroop.png","70","image-keyboard-response","32","97574","0.0-9.0-1.11","k8vv1y","Sat Feb 13 2021 11:18:42 GMT+0100 (CET)","2021","2","13","11","18","42","tx12","20","female","right","62","65","100","1","0","","","","","test","fear","happy","f","true"
"null","<div style=""font-size:60px;"">+</div>","null","html-keyboard-response","33","98331","0.0-9.0-0.12","k8vv1y","Sat Feb 13 2021 11:18:42 GMT+0100 (CET)","2021","2","13","11","18","42","tx12","20","female","right","62","65","100","1","0","","","","","fixation","","","",""
"507","img/image_stim_h.png","72","image-keyboard-response","34","98839","0.0-9.0-1.12","k8vv1y","Sat Feb 13 2021 11:18:42 GMT+0100 (CET)","2021","2","13","11","18","42","tx12","20","female","right","62","65","100","1","0","","","","","test","happy","happy","h","true"
"null","<div style=""font-size:60px;"">+</div>","null","html-keyboard-response","35","100595","0.0-9.0-0.13","k8vv1y","Sat Feb 13 2021 11:18:42 GMT+0100 (CET)","2021","2","13","11","18","42","tx12","20","female","right","62","65","100","1","0","","","","","fixation","","","",""
"633","img/image_stim_f.png","70","image-keyboard-response","36","101232","0.0-9.0-1.13","k8vv1y","Sat Feb 13 2021 11:18:42 GMT+0100 (CET)","2021","2","13","11","18","42","tx12","20","female","right","62","65","100","1","0","","","","","test","fear","fear","f","true"
"null","<div style=""font-size:60px;"">+</div>","null","html-keyboard-response","37","101986","0.0-9.0-0.14","k8vv1y","Sat Feb 13 2021 11:18:42 GMT+0100 (CET)","2021","2","13","11","18","42","tx12","20","female","right","62","65","100","1","0","","","","","fixation","","","",""
"719.9999999999854","img/image_stim_h_stroop.png","72","image-keyboard-response","38","102710","0.0-9.0-1.14","k8vv1y","Sat Feb 13 2021 11:18:42 GMT+0100 (CET)","2021","2","13","11","18","42","tx12","20","female","right","62","65","100","1","0","","","","","test","happy","fear","h","true"
"null","<div style=""font-size:60px;"">+</div>","null","html-keyboard-response","39","104718","0.0-9.0-0.15","k8vv1y","Sat Feb 13 2021 11:18:42 GMT+0100 (CET)","2021","2","13","11","18","42","tx12","20","female","right","62","65","100","1","0","","","","","fixation","","","",""
"626","img/image_stim_f_stroop.png","70","image-keyboard-response","40","105347","0.0-9.0-1.15","k8vv1y","Sat Feb 13 2021 11:18:42 GMT+0100 (CET)","2021","2","13","11","18","42","tx12","20","female","right","62","65","100","1","0","","","","","test","fear","happy","f","true"
"null","<div style=""font-size:60px;"">+</div>","null","html-keyboard-response","41","106104","0.0-9.0-0.16","k8vv1y","Sat Feb 13 2021 11:18:42 GMT+0100 (CET)","2021","2","13","11","18","42","tx12","20","female","right","62","65","100","1","0","","","","","fixation","","","",""
"509","img/image_stim_h.png","72","image-keyboard-response","42","106617","0.0-9.0-1.16","k8vv1y","Sat Feb 13 2021 11:18:42 GMT+0100 (CET)","2021","2","13","11","18","42","tx12","20","female","right","62","65","100","1","0","","","","","test","happy","happy","h","true"
"null","<div style=""font-size:60px;"">+</div>","null","html-keyboard-response","43","108124","0.0-9.0-0.17","k8vv1y","Sat Feb 13 2021 11:18:42 GMT+0100 (CET)","2021","2","13","11","18","42","tx12","20","female","right","62","65","100","1","0","","","","","fixation","","","",""
"672","img/image_stim_h_stroop.png","72","image-keyboard-response","44","108798","0.0-9.0-1.17","k8vv1y","Sat Feb 13 2021 11:18:42 GMT+0100 (CET)","2021","2","13","11","18","42","tx12","20","female","right","62","65","100","1","0","","","","","test","happy","fear","h","true"
"null","<div style=""font-size:60px;"">+</div>","null","html-keyboard-response","45","110306","0.0-9.0-0.18","k8vv1y","Sat Feb 13 2021 11:18:42 GMT+0100 (CET)","2021","2","13","11","18","42","tx12","20","female","right","62","65","100","1","0","","","","","fixation","","","",""
"617","img/image_stim_f_stroop.png","70","image-keyboard-response","46","110926","0.0-9.0-1.18","k8vv1y","Sat Feb 13 2021 11:18:42 GMT+0100 (CET)","2021","2","13","11","18","42","tx12","20","female","right","62","65","100","1","0","","","","","test","fear","happy","f","true"
"null","<div style=""font-size:60px;"">+</div>","null","html-keyboard-response","47","112933","0.0-9.0-0.19","k8vv1y","Sat Feb 13 2021 11:18:42 GMT+0100 (CET)","2021","2","13","11","18","42","tx12","20","female","right","62","65","100","1","0","","","","","fixation","","","",""
"779","img/image_stim_f.png","70","image-keyboard-response","48","113715","0.0-9.0-1.19","k8vv1y","Sat Feb 13 2021 11:18:42 GMT+0100 (CET)","2021","2","13","11","18","42","tx12","20","female","right","62","65","100","1","0","","","","","test","fear","fear","f","true"
"null","<div style=""font-size:60px;"">+</div>","null","html-keyboard-response","49","114973","0.0-9.0-0.20","k8vv1y","Sat Feb 13 2021 11:18:42 GMT+0100 (CET)","2021","2","13","11","18","42","tx12","20","female","right","62","65","100","1","0","","","","","fixation","","","",""
"643","img/image_stim_f_stroop.png","70","image-keyboard-response","50","115619","0.0-9.0-1.20","k8vv1y","Sat Feb 13 2021 11:18:42 GMT+0100 (CET)","2021","2","13","11","18","42","tx12","20","female","right","62","65","100","1","0","","","","","test","fear","happy","f","true"
"null","<div style=""font-size:60px;"">+</div>","null","html-keyboard-response","51","117627","0.0-9.0-0.21","k8vv1y","Sat Feb 13 2021 11:18:42 GMT+0100 (CET)","2021","2","13","11","18","42","tx12","20","female","right","62","65","100","1","0","","","","","fixation","","","",""
"537","img/image_stim_h.png","72","image-keyboard-response","52","118168","0.0-9.0-1.21","k8vv1y","Sat Feb 13 2021 11:18:42 GMT+0100 (CET)","2021","2","13","11","18","42","tx12","20","female","right","62","65","100","1","0","","","","","test","happy","happy","h","true"
"null","<div style=""font-size:60px;"">+</div>","null","html-keyboard-response","53","119427","0.0-9.0-0.22","k8vv1y","Sat Feb 13 2021 11:18:42 GMT+0100 (CET)","2021","2","13","11","18","42","tx12","20","female","right","62","65","100","1","0","","","","","fixation","","","",""
"648","img/image_stim_h_stroop.png","72","image-keyboard-response","54","120079","0.0-9.0-1.22","k8vv1y","Sat Feb 13 2021 11:18:42 GMT+0100 (CET)","2021","2","13","11","18","42","tx12","20","female","right","62","65","100","1","0","","","","","test","happy","fear","h","true"
"null","<div style=""font-size:60px;"">+</div>","null","html-keyboard-response","55","121087","0.0-9.0-0.23","k8vv1y","Sat Feb 13 2021 11:18:42 GMT+0100 (CET)","2021","2","13","11","18","42","tx12","20","female","right","62","65","100","1","0","","","","","fixation","","","",""
"650","img/image_stim_f.png","70","image-keyboard-response","56","121739","0.0-9.0-1.23","k8vv1y","Sat Feb 13 2021 11:18:42 GMT+0100 (CET)","2021","2","13","11","18","42","tx12","20","female","right","62","65","100","1","0","","","","","test","fear","fear","f","true"
"null","<div style=""font-size:60px;"">+</div>","null","html-keyboard-response","57","122997","0.0-9.0-0.24","k8vv1y","Sat Feb 13 2021 11:18:42 GMT+0100 (CET)","2021","2","13","11","18","42","tx12","20","female","right","62","65","100","1","0","","","","","fixation","","","",""
"574","img/image_stim_f.png","70","image-keyboard-response","58","123577","0.0-9.0-1.24","k8vv1y","Sat Feb 13 2021 11:18:42 GMT+0100 (CET)","2021","2","13","11","18","42","tx12","20","female","right","62","65","100","1","0","","","","","test","fear","fear","f","true"
"null","<div style=""font-size:60px;"">+</div>","null","html-keyboard-response","59","125083","0.0-9.0-0.25","k8vv1y","Sat Feb 13 2021 11:18:42 GMT+0100 (CET)","2021","2","13","11","18","42","tx12","20","female","right","62","65","100","1","0","","","","","fixation","","","",""
"910","img/image_stim_h_stroop.png","72","image-keyboard-response","60","125997","0.0-9.0-1.25","k8vv1y","Sat Feb 13 2021 11:18:42 GMT+0100 (CET)","2021","2","13","11","18","42","tx12","20","female","right","62","65","100","1","0","","","","","test","happy","fear","h","true"
"null","<div style=""font-size:60px;"">+</div>","null","html-keyboard-response","61","127003","0.0-9.0-0.26","k8vv1y","Sat Feb 13 2021 11:18:42 GMT+0100 (CET)","2021","2","13","11","18","42","tx12","20","female","right","62","65","100","1","0","","","","","fixation","","","",""
"831.0000000000146","img/image_stim_h.png","72","image-keyboard-response","62","127838","0.0-9.0-1.26","k8vv1y","Sat Feb 13 2021 11:18:42 GMT+0100 (CET)","2021","2","13","11","18","42","tx12","20","female","right","62","65","100","1","0","","","","","test","happy","happy","h","true"
"null","<div style=""font-size:60px;"">+</div>","null","html-keyboard-response","63","128344","0.0-9.0-0.27","k8vv1y","Sat Feb 13 2021 11:18:42 GMT+0100 (CET)","2021","2","13","11","18","42","tx12","20","female","right","62","65","100","1","0","","","","","fixation","","","",""
"560","img/image_stim_f_stroop.png","70","image-keyboard-response","64","128908","0.0-9.0-1.27","k8vv1y","Sat Feb 13 2021 11:18:42 GMT+0100 (CET)","2021","2","13","11","18","42","tx12","20","female","right","62","65","100","1","0","","","","","test","fear","happy","f","true"
"null","<div style=""font-size:60px;"">+</div>","null","html-keyboard-response","65","129414","0.0-9.0-0.28","k8vv1y","Sat Feb 13 2021 11:18:42 GMT+0100 (CET)","2021","2","13","11","18","42","tx12","20","female","right","62","65","100","1","0","","","","","fixation","","","",""
"643.9999999999854","img/image_stim_h_stroop.png","72","image-keyboard-response","66","130061","0.0-9.0-1.28","k8vv1y","Sat Feb 13 2021 11:18:42 GMT+0100 (CET)","2021","2","13","11","18","42","tx12","20","female","right","62","65","100","1","0","","","","","test","happy","fear","h","true"
"null","<div style=""font-size:60px;"">+</div>","null","html-keyboard-response","67","131317","0.0-9.0-0.29","k8vv1y","Sat Feb 13 2021 11:18:42 GMT+0100 (CET)","2021","2","13","11","18","42","tx12","20","female","right","62","65","100","1","0","","","","","fixation","","","",""
"620","img/image_stim_h.png","72","image-keyboard-response","68","131940","0.0-9.0-1.29","k8vv1y","Sat Feb 13 2021 11:18:42 GMT+0100 (CET)","2021","2","13","11","18","42","tx12","20","female","right","62","65","100","1","0","","","","","test","happy","happy","h","true"
"null","<div style=""font-size:60px;"">+</div>","null","html-keyboard-response","69","132947","0.0-9.0-0.30","k8vv1y","Sat Feb 13 2021 11:18:42 GMT+0100 (CET)","2021","2","13","11","18","42","tx12","20","female","right","62","65","100","1","0","","","","","fixation","","","",""
"941","img/image_stim_f_stroop.png","70","image-keyboard-response","70","133891","0.0-9.0-1.30","k8vv1y","Sat Feb 13 2021 11:18:42 GMT+0100 (CET)","2021","2","13","11","18","42","tx12","20","female","right","62","65","100","1","0","","","","","test","fear","happy","f","true"
"null","<div style=""font-size:60px;"">+</div>","null","html-keyboard-response","71","135147","0.0-9.0-0.31","k8vv1y","Sat Feb 13 2021 11:18:42 GMT+0100 (CET)","2021","2","13","11","18","42","tx12","20","female","right","62","65","100","1","0","","","","","fixation","","","",""
"665.0000000000291","img/image_stim_f.png","70","image-keyboard-response","72","135816","0.0-9.0-1.31","k8vv1y","Sat Feb 13 2021 11:18:42 GMT+0100 (CET)","2021","2","13","11","18","42","tx12","20","female","right","62","65","100","1","0","","","","","test","fear","fear","f","true"
"null","<div style=""font-size:60px;"">+</div>","null","html-keyboard-response","73","136822","0.0-9.0-0.32","k8vv1y","Sat Feb 13 2021 11:18:42 GMT+0100 (CET)","2021","2","13","11","18","42","tx12","20","female","right","62","65","100","1","0","","","","","fixation","","","",""
"645.0000000000291","img/image_stim_f.png","70","image-keyboard-response","74","137470","0.0-9.0-1.32","k8vv1y","Sat Feb 13 2021 11:18:42 GMT+0100 (CET)","2021","2","13","11","18","42","tx12","20","female","right","62","65","100","1","0","","","","","test","fear","fear","f","true"
"null","<div style=""font-size:60px;"">+</div>","null","html-keyboard-response","75","138726","0.0-9.0-0.33","k8vv1y","Sat Feb 13 2021 11:18:42 GMT+0100 (CET)","2021","2","13","11","18","42","tx12","20","female","right","62","65","100","1","0","","","","","fixation","","","",""
"846","img/image_stim_f_stroop.png","70","image-keyboard-response","76","139576","0.0-9.0-1.33","k8vv1y","Sat Feb 13 2021 11:18:42 GMT+0100 (CET)","2021","2","13","11","18","42","tx12","20","female","right","62","65","100","1","0","","","","","test","fear","happy","f","true"
"null","<div style=""font-size:60px;"">+</div>","null","html-keyboard-response","77","140583","0.0-9.0-0.34","k8vv1y","Sat Feb 13 2021 11:18:42 GMT+0100 (CET)","2021","2","13","11","18","42","tx12","20","female","right","62","65","100","1","0","","","","","fixation","","","",""
"523","img/image_stim_h.png","72","image-keyboard-response","78","141109","0.0-9.0-1.34","k8vv1y","Sat Feb 13 2021 11:18:42 GMT+0100 (CET)","2021","2","13","11","18","42","tx12","20","female","right","62","65","100","1","0","","","","","test","happy","happy","h","true"
"null","<div style=""font-size:60px;"">+</div>","null","html-keyboard-response","79","143115","0.0-9.0-0.35","k8vv1y","Sat Feb 13 2021 11:18:42 GMT+0100 (CET)","2021","2","13","11","18","42","tx12","20","female","right","62","65","100","1","0","","","","","fixation","","","",""
"599","img/image_stim_h_stroop.png","72","image-keyboard-response","80","143718","0.0-9.0-1.35","k8vv1y","Sat Feb 13 2021 11:18:42 GMT+0100 (CET)","2021","2","13","11","18","42","tx12","20","female","right","62","65","100","1","0","","","","","test","happy","fear","h","true"
