"rt","stimulus","key_press","trial_type","trial_index","time_elapsed","internal_node_id","exp_id","Time","year","month","date","hour","minute","seconds","id","age","Gender","Handedness","mood","fresh","hunger","H_since_Sleep","H_since_Eat","responses","question_order","slider_start","response","test_part","face","word","correct_response","correct"
"2027.399999788031","<p>Welcome to this experiment on daily rhythms and cognition.</p><p>First you will be asked some questions about yourself.</p><p>Then a short experiment will measure your response time.</p><p>Take the test at different times of the day/night.</p><p>The test is anonymous, but comparing your data across time is important.</p><p>Therefore, please make up and remember a personal ID (two letters+ two numbers).</p><p>Use this ID whenever taking the test.</p><p><strong>Press any key to begin.</strong></p>","13","html-keyboard-response","0","2032","0.0-0.0","en1qqx","Mon Feb 08 2021 09:37:43 GMT+0100 (Centraleuropæisk normaltid)","2021","2","8","9","37","43","LA80","40","female","right","53","69","83","3","2","","","","","","","","",""
"3975.4200000315905","","","survey-text","1","6017","0.0-1.0","en1qqx","Mon Feb 08 2021 09:37:43 GMT+0100 (Centraleuropæisk normaltid)","2021","2","8","9","37","43","LA80","40","female","right","53","69","83","3","2","{""Q0"":""LA80""}","","","","","","","",""
"2709.650000091642","","","survey-text","2","8734","0.0-2.0","en1qqx","Mon Feb 08 2021 09:37:43 GMT+0100 (Centraleuropæisk normaltid)","2021","2","8","9","37","43","LA80","40","female","right","53","69","83","3","2","{""Q0"":""40""}","","","","","","","",""
"4560.005000093952","","","survey-multi-select","3","13299","0.0-3.0","en1qqx","Mon Feb 08 2021 09:37:43 GMT+0100 (Centraleuropæisk normaltid)","2021","2","8","9","37","43","LA80","40","female","right","53","69","83","3","2","{""Gender"":[""female""],""Hand"":[""right""]}","[0,1]","","","","","","",""
"6150.889999931678","<p>How Sad/Angry or Happy are you right now?</p>","","html-slider-response","4","19452","0.0-4.0","en1qqx","Mon Feb 08 2021 09:37:43 GMT+0100 (Centraleuropæisk normaltid)","2021","2","8","9","37","43","LA80","40","female","right","53","69","83","3","2","","","50","53","","","","",""
"6621.349999913946","<p>How Tired/Sleepy/Distracted or Fresh/Awake/Alert are you right now?</p>","","html-slider-response","5","26075","0.0-5.0","en1qqx","Mon Feb 08 2021 09:37:43 GMT+0100 (Centraleuropæisk normaltid)","2021","2","8","9","37","43","LA80","40","female","right","53","69","83","3","2","","","50","69","","","","",""
"6611.6750000510365","<p>How Hungry or Satiated are you right now?</p>","","html-slider-response","6","32688","0.0-6.0","en1qqx","Mon Feb 08 2021 09:37:43 GMT+0100 (Centraleuropæisk normaltid)","2021","2","8","9","37","43","LA80","40","female","right","53","69","83","3","2","","","50","83","","","","",""
"21221.80000017397","","","survey-multi-select","7","53919","0.0-7.0","en1qqx","Mon Feb 08 2021 09:37:43 GMT+0100 (Centraleuropæisk normaltid)","2021","2","8","9","37","43","LA80","40","female","right","53","69","83","3","2","{""Sleep"":[""3""],""Eat"":[""2""]}","[0,1]","","","","","","",""
"3415.529999881983","<p>In this experiment, a face and a word will appear in the center of the screen.</p><p>If the face is <strong>happy</strong>, press the letter <strong>H</strong> with <strong>right</strong> index finger.</p><p>If the face is <strong>fearful</strong>, press the letter <strong>F</strong> with <strong>left</strong> index finger.</p><p><strong>Ignore the written words</strong>. Respond as fast as possible while being correct. </p><div style='width: 900px;'><div style='float: left;'><img src='img/stimuli_stroop_happy.png'></img><p class='small'><strong>Press the H key for happy faces</strong></p></div><div class='float: right;'><img src='img/stimuli_stroop_fear.png'></img><p class='small'><strong>Press the F key for faces with fear</strong></p></div></div><p>If the screen turns blank, press <strong>SPACE</strong></p><p><strong>Press any key to begin.</strong></p>","32","html-keyboard-response","8","57336","0.0-8.0","en1qqx","Mon Feb 08 2021 09:37:43 GMT+0100 (Centraleuropæisk normaltid)","2021","2","8","9","37","43","LA80","40","female","right","53","69","83","3","2","","","","","","","","",""
"null","<div style=""font-size:60px;"">+</div>","null","html-keyboard-response","9","61102","0.0-9.0-0.0","en1qqx","Mon Feb 08 2021 09:37:43 GMT+0100 (Centraleuropæisk normaltid)","2021","2","8","9","37","43","LA80","40","female","right","53","69","83","3","2","","","","","fixation","","","",""
"null","img/image_stim_f.png","null","image-keyboard-response","10","66111","0.0-9.0-1.0","en1qqx","Mon Feb 08 2021 09:37:43 GMT+0100 (Centraleuropæisk normaltid)","2021","2","8","9","37","43","LA80","40","female","right","53","69","83","3","2","","","","","test","fear","fear","f","false"
"null","<div style=""font-size:60px;"">+</div>","null","html-keyboard-response","11","66623","0.0-9.0-0.1","en1qqx","Mon Feb 08 2021 09:37:43 GMT+0100 (Centraleuropæisk normaltid)","2021","2","8","9","37","43","LA80","40","female","right","53","69","83","3","2","","","","","fixation","","","",""
"null","img/image_stim_h.png","null","image-keyboard-response","12","71629","0.0-9.0-1.1","en1qqx","Mon Feb 08 2021 09:37:43 GMT+0100 (Centraleuropæisk normaltid)","2021","2","8","9","37","43","LA80","40","female","right","53","69","83","3","2","","","","","test","happy","happy","h","false"
"null","<div style=""font-size:60px;"">+</div>","null","html-keyboard-response","13","73141","0.0-9.0-0.2","en1qqx","Mon Feb 08 2021 09:37:43 GMT+0100 (Centraleuropæisk normaltid)","2021","2","8","9","37","43","LA80","40","female","right","53","69","83","3","2","","","","","fixation","","","",""
"null","img/image_stim_f_stroop.png","null","image-keyboard-response","14","78153","0.0-9.0-1.2","en1qqx","Mon Feb 08 2021 09:37:43 GMT+0100 (Centraleuropæisk normaltid)","2021","2","8","9","37","43","LA80","40","female","right","53","69","83","3","2","","","","","test","fear","happy","f","false"
"null","<div style=""font-size:60px;"">+</div>","null","html-keyboard-response","15","79415","0.0-9.0-0.3","en1qqx","Mon Feb 08 2021 09:37:43 GMT+0100 (Centraleuropæisk normaltid)","2021","2","8","9","37","43","LA80","40","female","right","53","69","83","3","2","","","","","fixation","","","",""
"null","img/image_stim_h_stroop.png","null","image-keyboard-response","16","84425","0.0-9.0-1.3","en1qqx","Mon Feb 08 2021 09:37:43 GMT+0100 (Centraleuropæisk normaltid)","2021","2","8","9","37","43","LA80","40","female","right","53","69","83","3","2","","","","","test","happy","fear","h","false"
"null","<div style=""font-size:60px;"">+</div>","null","html-keyboard-response","17","85433","0.0-9.0-0.4","en1qqx","Mon Feb 08 2021 09:37:43 GMT+0100 (Centraleuropæisk normaltid)","2021","2","8","9","37","43","LA80","40","female","right","53","69","83","3","2","","","","","fixation","","","",""
"955.4199997801334","img/image_stim_h_stroop.png","72","image-keyboard-response","18","86414","0.0-9.0-1.4","en1qqx","Mon Feb 08 2021 09:37:43 GMT+0100 (Centraleuropæisk normaltid)","2021","2","8","9","37","43","LA80","40","female","right","53","69","83","3","2","","","","","test","happy","fear","h","true"
"null","<div style=""font-size:60px;"">+</div>","null","html-keyboard-response","19","87432","0.0-9.0-0.5","en1qqx","Mon Feb 08 2021 09:37:43 GMT+0100 (Centraleuropæisk normaltid)","2021","2","8","9","37","43","LA80","40","female","right","53","69","83","3","2","","","","","fixation","","","",""
"451.5849999152124","img/image_stim_h.png","72","image-keyboard-response","20","87885","0.0-9.0-1.5","en1qqx","Mon Feb 08 2021 09:37:43 GMT+0100 (Centraleuropæisk normaltid)","2021","2","8","9","37","43","LA80","40","female","right","53","69","83","3","2","","","","","test","happy","happy","h","true"
"null","<div style=""font-size:60px;"">+</div>","null","html-keyboard-response","21","89145","0.0-9.0-0.6","en1qqx","Mon Feb 08 2021 09:37:43 GMT+0100 (Centraleuropæisk normaltid)","2021","2","8","9","37","43","LA80","40","female","right","53","69","83","3","2","","","","","fixation","","","",""
"601.954999845475","img/image_stim_f.png","70","image-keyboard-response","22","89750","0.0-9.0-1.6","en1qqx","Mon Feb 08 2021 09:37:43 GMT+0100 (Centraleuropæisk normaltid)","2021","2","8","9","37","43","LA80","40","female","right","53","69","83","3","2","","","","","test","fear","fear","f","true"
"null","<div style=""font-size:60px;"">+</div>","null","html-keyboard-response","23","90516","0.0-9.0-0.7","en1qqx","Mon Feb 08 2021 09:37:43 GMT+0100 (Centraleuropæisk normaltid)","2021","2","8","9","37","43","LA80","40","female","right","53","69","83","3","2","","","","","fixation","","","",""
"535.765000153333","img/image_stim_f_stroop.png","70","image-keyboard-response","24","91055","0.0-9.0-1.7","en1qqx","Mon Feb 08 2021 09:37:43 GMT+0100 (Centraleuropæisk normaltid)","2021","2","8","9","37","43","LA80","40","female","right","53","69","83","3","2","","","","","test","fear","happy","f","true"
"null","<div style=""font-size:60px;"">+</div>","null","html-keyboard-response","25","91814","0.0-9.0-0.8","en1qqx","Mon Feb 08 2021 09:37:43 GMT+0100 (Centraleuropæisk normaltid)","2021","2","8","9","37","43","LA80","40","female","right","53","69","83","3","2","","","","","fixation","","","",""
"406.9100001361221","img/image_stim_f.png","70","image-keyboard-response","26","92224","0.0-9.0-1.8","en1qqx","Mon Feb 08 2021 09:37:43 GMT+0100 (Centraleuropæisk normaltid)","2021","2","8","9","37","43","LA80","40","female","right","53","69","83","3","2","","","","","test","fear","fear","f","true"
"null","<div style=""font-size:60px;"">+</div>","null","html-keyboard-response","27","93734","0.0-9.0-0.9","en1qqx","Mon Feb 08 2021 09:37:43 GMT+0100 (Centraleuropæisk normaltid)","2021","2","8","9","37","43","LA80","40","female","right","53","69","83","3","2","","","","","fixation","","","",""
"797.054999973625","img/image_stim_f_stroop.png","70","image-keyboard-response","28","94534","0.0-9.0-1.9","en1qqx","Mon Feb 08 2021 09:37:43 GMT+0100 (Centraleuropæisk normaltid)","2021","2","8","9","37","43","LA80","40","female","right","53","69","83","3","2","","","","","test","fear","happy","f","true"
"null","<div style=""font-size:60px;"">+</div>","null","html-keyboard-response","29","95047","0.0-9.0-0.10","en1qqx","Mon Feb 08 2021 09:37:43 GMT+0100 (Centraleuropæisk normaltid)","2021","2","8","9","37","43","LA80","40","female","right","53","69","83","3","2","","","","","fixation","","","",""
"487.81499988399446","img/image_stim_h.png","72","image-keyboard-response","30","95537","0.0-9.0-1.10","en1qqx","Mon Feb 08 2021 09:37:43 GMT+0100 (Centraleuropæisk normaltid)","2021","2","8","9","37","43","LA80","40","female","right","53","69","83","3","2","","","","","test","happy","happy","h","true"
"null","<div style=""font-size:60px;"">+</div>","null","html-keyboard-response","31","97301","0.0-9.0-0.11","en1qqx","Mon Feb 08 2021 09:37:43 GMT+0100 (Centraleuropæisk normaltid)","2021","2","8","9","37","43","LA80","40","female","right","53","69","83","3","2","","","","","fixation","","","",""
"537.3750000726432","img/image_stim_h_stroop.png","72","image-keyboard-response","32","97841","0.0-9.0-1.11","en1qqx","Mon Feb 08 2021 09:37:43 GMT+0100 (Centraleuropæisk normaltid)","2021","2","8","9","37","43","LA80","40","female","right","53","69","83","3","2","","","","","test","happy","fear","h","true"
"null","<div style=""font-size:60px;"">+</div>","null","html-keyboard-response","33","99603","0.0-9.0-0.12","en1qqx","Mon Feb 08 2021 09:37:43 GMT+0100 (Centraleuropæisk normaltid)","2021","2","8","9","37","43","LA80","40","female","right","53","69","83","3","2","","","","","fixation","","","",""
"null","img/image_stim_f_stroop.png","null","image-keyboard-response","34","104609","0.0-9.0-1.12","en1qqx","Mon Feb 08 2021 09:37:43 GMT+0100 (Centraleuropæisk normaltid)","2021","2","8","9","37","43","LA80","40","female","right","53","69","83","3","2","","","","","test","fear","happy","f","false"
"null","<div style=""font-size:60px;"">+</div>","null","html-keyboard-response","35","105369","0.0-9.0-0.13","en1qqx","Mon Feb 08 2021 09:37:43 GMT+0100 (Centraleuropæisk normaltid)","2021","2","8","9","37","43","LA80","40","female","right","53","69","83","3","2","","","","","fixation","","","",""
"null","img/image_stim_h.png","null","image-keyboard-response","36","110376","0.0-9.0-1.13","en1qqx","Mon Feb 08 2021 09:37:43 GMT+0100 (Centraleuropæisk normaltid)","2021","2","8","9","37","43","LA80","40","female","right","53","69","83","3","2","","","","","test","happy","happy","h","false"
"null","<div style=""font-size:60px;"">+</div>","null","html-keyboard-response","37","112142","0.0-9.0-0.14","en1qqx","Mon Feb 08 2021 09:37:43 GMT+0100 (Centraleuropæisk normaltid)","2021","2","8","9","37","43","LA80","40","female","right","53","69","83","3","2","","","","","fixation","","","",""
"null","img/image_stim_h_stroop.png","null","image-keyboard-response","38","117149","0.0-9.0-1.14","en1qqx","Mon Feb 08 2021 09:37:43 GMT+0100 (Centraleuropæisk normaltid)","2021","2","8","9","37","43","LA80","40","female","right","53","69","83","3","2","","","","","test","happy","fear","h","false"
"null","<div style=""font-size:60px;"">+</div>","null","html-keyboard-response","39","118411","0.0-9.0-0.15","en1qqx","Mon Feb 08 2021 09:37:43 GMT+0100 (Centraleuropæisk normaltid)","2021","2","8","9","37","43","LA80","40","female","right","53","69","83","3","2","","","","","fixation","","","",""
"null","img/image_stim_f.png","null","image-keyboard-response","40","123414","0.0-9.0-1.15","en1qqx","Mon Feb 08 2021 09:37:43 GMT+0100 (Centraleuropæisk normaltid)","2021","2","8","9","37","43","LA80","40","female","right","53","69","83","3","2","","","","","test","fear","fear","f","false"
"null","<div style=""font-size:60px;"">+</div>","null","html-keyboard-response","41","125172","0.0-9.0-0.16","en1qqx","Mon Feb 08 2021 09:37:43 GMT+0100 (Centraleuropæisk normaltid)","2021","2","8","9","37","43","LA80","40","female","right","53","69","83","3","2","","","","","fixation","","","",""
"688.6799999047071","img/image_stim_f.png","70","image-keyboard-response","42","125864","0.0-9.0-1.16","en1qqx","Mon Feb 08 2021 09:37:43 GMT+0100 (Centraleuropæisk normaltid)","2021","2","8","9","37","43","LA80","40","female","right","53","69","83","3","2","","","","","test","fear","fear","f","true"
"null","<div style=""font-size:60px;"">+</div>","null","html-keyboard-response","43","126878","0.0-9.0-0.17","en1qqx","Mon Feb 08 2021 09:37:43 GMT+0100 (Centraleuropæisk normaltid)","2021","2","8","9","37","43","LA80","40","female","right","53","69","83","3","2","","","","","fixation","","","",""
"582.3650001548231","img/image_stim_h.png","72","image-keyboard-response","44","127463","0.0-9.0-1.17","en1qqx","Mon Feb 08 2021 09:37:43 GMT+0100 (Centraleuropæisk normaltid)","2021","2","8","9","37","43","LA80","40","female","right","53","69","83","3","2","","","","","test","happy","happy","h","true"
"null","<div style=""font-size:60px;"">+</div>","null","html-keyboard-response","45","128474","0.0-9.0-0.18","en1qqx","Mon Feb 08 2021 09:37:43 GMT+0100 (Centraleuropæisk normaltid)","2021","2","8","9","37","43","LA80","40","female","right","53","69","83","3","2","","","","","fixation","","","",""
"627.7750001754612","img/image_stim_h_stroop.png","72","image-keyboard-response","46","129104","0.0-9.0-1.18","en1qqx","Mon Feb 08 2021 09:37:43 GMT+0100 (Centraleuropæisk normaltid)","2021","2","8","9","37","43","LA80","40","female","right","53","69","83","3","2","","","","","test","happy","fear","h","true"
"null","<div style=""font-size:60px;"">+</div>","null","html-keyboard-response","47","130114","0.0-9.0-0.19","en1qqx","Mon Feb 08 2021 09:37:43 GMT+0100 (Centraleuropæisk normaltid)","2021","2","8","9","37","43","LA80","40","female","right","53","69","83","3","2","","","","","fixation","","","",""
"null","img/image_stim_f_stroop.png","null","image-keyboard-response","48","135116","0.0-9.0-1.19","en1qqx","Mon Feb 08 2021 09:37:43 GMT+0100 (Centraleuropæisk normaltid)","2021","2","8","9","37","43","LA80","40","female","right","53","69","83","3","2","","","","","test","fear","happy","f","false"
"null","<div style=""font-size:60px;"">+</div>","null","html-keyboard-response","49","137126","0.0-9.0-0.20","en1qqx","Mon Feb 08 2021 09:37:43 GMT+0100 (Centraleuropæisk normaltid)","2021","2","8","9","37","43","LA80","40","female","right","53","69","83","3","2","","","","","fixation","","","",""
"664.0449999831617","img/image_stim_f.png","70","image-keyboard-response","50","137793","0.0-9.0-1.20","en1qqx","Mon Feb 08 2021 09:37:43 GMT+0100 (Centraleuropæisk normaltid)","2021","2","8","9","37","43","LA80","40","female","right","53","69","83","3","2","","","","","test","fear","fear","f","true"
"null","<div style=""font-size:60px;"">+</div>","null","html-keyboard-response","51","138806","0.0-9.0-0.21","en1qqx","Mon Feb 08 2021 09:37:43 GMT+0100 (Centraleuropæisk normaltid)","2021","2","8","9","37","43","LA80","40","female","right","53","69","83","3","2","","","","","fixation","","","",""
"399.73000017926097","img/image_stim_f_stroop.png","70","image-keyboard-response","52","139209","0.0-9.0-1.21","en1qqx","Mon Feb 08 2021 09:37:43 GMT+0100 (Centraleuropæisk normaltid)","2021","2","8","9","37","43","LA80","40","female","right","53","69","83","3","2","","","","","test","fear","happy","f","true"
"null","<div style=""font-size:60px;"">+</div>","null","html-keyboard-response","53","141221","0.0-9.0-0.22","en1qqx","Mon Feb 08 2021 09:37:43 GMT+0100 (Centraleuropæisk normaltid)","2021","2","8","9","37","43","LA80","40","female","right","53","69","83","3","2","","","","","fixation","","","",""
"557.4200002010912","img/image_stim_h.png","72","image-keyboard-response","54","141782","0.0-9.0-1.22","en1qqx","Mon Feb 08 2021 09:37:43 GMT+0100 (Centraleuropæisk normaltid)","2021","2","8","9","37","43","LA80","40","female","right","53","69","83","3","2","","","","","test","happy","happy","h","true"
"null","<div style=""font-size:60px;"">+</div>","null","html-keyboard-response","55","143044","0.0-9.0-0.23","en1qqx","Mon Feb 08 2021 09:37:43 GMT+0100 (Centraleuropæisk normaltid)","2021","2","8","9","37","43","LA80","40","female","right","53","69","83","3","2","","","","","fixation","","","",""
"351.86000005342066","img/image_stim_h_stroop.png","72","image-keyboard-response","56","143398","0.0-9.0-1.23","en1qqx","Mon Feb 08 2021 09:37:43 GMT+0100 (Centraleuropæisk normaltid)","2021","2","8","9","37","43","LA80","40","female","right","53","69","83","3","2","","","","","test","happy","fear","h","true"
"null","<div style=""font-size:60px;"">+</div>","null","html-keyboard-response","57","145410","0.0-9.0-0.24","en1qqx","Mon Feb 08 2021 09:37:43 GMT+0100 (Centraleuropæisk normaltid)","2021","2","8","9","37","43","LA80","40","female","right","53","69","83","3","2","","","","","fixation","","","",""
"494.16000000201166","img/image_stim_f.png","70","image-keyboard-response","58","145907","0.0-9.0-1.24","en1qqx","Mon Feb 08 2021 09:37:43 GMT+0100 (Centraleuropæisk normaltid)","2021","2","8","9","37","43","LA80","40","female","right","53","69","83","3","2","","","","","test","fear","fear","f","true"
"null","<div style=""font-size:60px;"">+</div>","null","html-keyboard-response","59","147677","0.0-9.0-0.25","en1qqx","Mon Feb 08 2021 09:37:43 GMT+0100 (Centraleuropæisk normaltid)","2021","2","8","9","37","43","LA80","40","female","right","53","69","83","3","2","","","","","fixation","","","",""
"661.0550000332296","img/image_stim_h_stroop.png","72","image-keyboard-response","60","148345","0.0-9.0-1.25","en1qqx","Mon Feb 08 2021 09:37:43 GMT+0100 (Centraleuropæisk normaltid)","2021","2","8","9","37","43","LA80","40","female","right","53","69","83","3","2","","","","","test","happy","fear","h","true"
"null","<div style=""font-size:60px;"">+</div>","null","html-keyboard-response","61","148861","0.0-9.0-0.26","en1qqx","Mon Feb 08 2021 09:37:43 GMT+0100 (Centraleuropæisk normaltid)","2021","2","8","9","37","43","LA80","40","female","right","53","69","83","3","2","","","","","fixation","","","",""
"460.2850000374019","img/image_stim_h.png","72","image-keyboard-response","62","149323","0.0-9.0-1.26","en1qqx","Mon Feb 08 2021 09:37:43 GMT+0100 (Centraleuropæisk normaltid)","2021","2","8","9","37","43","LA80","40","female","right","53","69","83","3","2","","","","","test","happy","happy","h","true"
"null","<div style=""font-size:60px;"">+</div>","null","html-keyboard-response","63","151082","0.0-9.0-0.27","en1qqx","Mon Feb 08 2021 09:37:43 GMT+0100 (Centraleuropæisk normaltid)","2021","2","8","9","37","43","LA80","40","female","right","53","69","83","3","2","","","","","fixation","","","",""
"516.6449998505414","img/image_stim_f_stroop.png","70","image-keyboard-response","64","151601","0.0-9.0-1.27","en1qqx","Mon Feb 08 2021 09:37:43 GMT+0100 (Centraleuropæisk normaltid)","2021","2","8","9","37","43","LA80","40","female","right","53","69","83","3","2","","","","","test","fear","happy","f","true"
"null","<div style=""font-size:60px;"">+</div>","null","html-keyboard-response","65","152117","0.0-9.0-0.28","en1qqx","Mon Feb 08 2021 09:37:43 GMT+0100 (Centraleuropæisk normaltid)","2021","2","8","9","37","43","LA80","40","female","right","53","69","83","3","2","","","","","fixation","","","",""
"452.9750000219792","img/image_stim_h_stroop.png","72","image-keyboard-response","66","152572","0.0-9.0-1.28","en1qqx","Mon Feb 08 2021 09:37:43 GMT+0100 (Centraleuropæisk normaltid)","2021","2","8","9","37","43","LA80","40","female","right","53","69","83","3","2","","","","","test","happy","fear","h","true"
"null","<div style=""font-size:60px;"">+</div>","null","html-keyboard-response","67","153335","0.0-9.0-0.29","en1qqx","Mon Feb 08 2021 09:37:43 GMT+0100 (Centraleuropæisk normaltid)","2021","2","8","9","37","43","LA80","40","female","right","53","69","83","3","2","","","","","fixation","","","",""
"603.8549998775125","img/image_stim_h.png","72","image-keyboard-response","68","153942","0.0-9.0-1.29","en1qqx","Mon Feb 08 2021 09:37:43 GMT+0100 (Centraleuropæisk normaltid)","2021","2","8","9","37","43","LA80","40","female","right","53","69","83","3","2","","","","","test","happy","happy","h","true"
"null","<div style=""font-size:60px;"">+</div>","null","html-keyboard-response","69","154209","0.0-9.0-0.30","en1qqx","Mon Feb 08 2021 09:37:43 GMT+0100 (Centraleuropæisk normaltid)","2021","2","8","9","37","43","LA80","40","female","right","53","69","83","3","2","","","","","fixation","","","",""
"476.96000011637807","img/image_stim_f_stroop.png","70","image-keyboard-response","70","154688","0.0-9.0-1.30","en1qqx","Mon Feb 08 2021 09:37:43 GMT+0100 (Centraleuropæisk normaltid)","2021","2","8","9","37","43","LA80","40","female","right","53","69","83","3","2","","","","","test","fear","happy","f","true"
"null","<div style=""font-size:60px;"">+</div>","null","html-keyboard-response","71","156702","0.0-9.0-0.31","en1qqx","Mon Feb 08 2021 09:37:43 GMT+0100 (Centraleuropæisk normaltid)","2021","2","8","9","37","43","LA80","40","female","right","53","69","83","3","2","","","","","fixation","","","",""
"1009.919999865815","img/image_stim_f.png","70","image-keyboard-response","72","157715","0.0-9.0-1.31","en1qqx","Mon Feb 08 2021 09:37:43 GMT+0100 (Centraleuropæisk normaltid)","2021","2","8","9","37","43","LA80","40","female","right","53","69","83","3","2","","","","","test","fear","fear","f","true"
"null","<div style=""font-size:60px;"">+</div>","null","html-keyboard-response","73","158727","0.0-9.0-0.32","en1qqx","Mon Feb 08 2021 09:37:43 GMT+0100 (Centraleuropæisk normaltid)","2021","2","8","9","37","43","LA80","40","female","right","53","69","83","3","2","","","","","fixation","","","",""
"516.2750000599772","img/image_stim_h_stroop.png","72","image-keyboard-response","74","159246","0.0-9.0-1.32","en1qqx","Mon Feb 08 2021 09:37:43 GMT+0100 (Centraleuropæisk normaltid)","2021","2","8","9","37","43","LA80","40","female","right","53","69","83","3","2","","","","","test","happy","fear","h","true"
"null","<div style=""font-size:60px;"">+</div>","null","html-keyboard-response","75","160259","0.0-9.0-0.33","en1qqx","Mon Feb 08 2021 09:37:43 GMT+0100 (Centraleuropæisk normaltid)","2021","2","8","9","37","43","LA80","40","female","right","53","69","83","3","2","","","","","fixation","","","",""
"550.0300000421703","img/image_stim_f.png","70","image-keyboard-response","76","160812","0.0-9.0-1.33","en1qqx","Mon Feb 08 2021 09:37:43 GMT+0100 (Centraleuropæisk normaltid)","2021","2","8","9","37","43","LA80","40","female","right","53","69","83","3","2","","","","","test","fear","fear","f","true"
"null","<div style=""font-size:60px;"">+</div>","null","html-keyboard-response","77","161327","0.0-9.0-0.34","en1qqx","Mon Feb 08 2021 09:37:43 GMT+0100 (Centraleuropæisk normaltid)","2021","2","8","9","37","43","LA80","40","female","right","53","69","83","3","2","","","","","fixation","","","",""
"794.9249998200685","img/image_stim_f_stroop.png","70","image-keyboard-response","78","162125","0.0-9.0-1.34","en1qqx","Mon Feb 08 2021 09:37:43 GMT+0100 (Centraleuropæisk normaltid)","2021","2","8","9","37","43","LA80","40","female","right","53","69","83","3","2","","","","","test","fear","happy","f","true"
"null","<div style=""font-size:60px;"">+</div>","null","html-keyboard-response","79","163388","0.0-9.0-0.35","en1qqx","Mon Feb 08 2021 09:37:43 GMT+0100 (Centraleuropæisk normaltid)","2021","2","8","9","37","43","LA80","40","female","right","53","69","83","3","2","","","","","fixation","","","",""
"526.2799998745322","img/image_stim_h.png","72","image-keyboard-response","80","163917","0.0-9.0-1.35","en1qqx","Mon Feb 08 2021 09:37:43 GMT+0100 (Centraleuropæisk normaltid)","2021","2","8","9","37","43","LA80","40","female","right","53","69","83","3","2","","","","","test","happy","happy","h","true"
