"rt","stimulus","key_press","trial_type","trial_index","time_elapsed","internal_node_id","exp_id","Time","year","month","date","hour","minute","seconds","id","age","Gender","Handedness","mood","fresh","hunger","H_since_Sleep","H_since_Eat","responses","question_order","slider_start","response","test_part","face","word","correct_response","correct"
"28441.77999999374","<p>Welcome to this experiment on daily rhythms and cognition.</p><p>First you will be asked some questions about yourself.</p><p>Then a short experiment will measure your response time.</p><p>Take the test at different times of the day/night.</p><p>The test is anonymous, but comparing your data across time is important.</p><p>Therefore, please make up and remember a personal ID (two letters+ two numbers).</p><p>Use this ID whenever taking the test.</p><p><strong>Press any key to begin.</strong></p>","32","html-keyboard-response","0","28443","0.0-0.0","vdgnr9","Wed Feb 10 2021 18:04:56 GMT+0100 (Central European Standard Time)","2021","2","10","18","4","56","lm99","21","female","right","68","33","7","10","6","","","","","","","","",""
"16859.195000026375","","","survey-text","1","45310","0.0-1.0","vdgnr9","Wed Feb 10 2021 18:04:56 GMT+0100 (Central European Standard Time)","2021","2","10","18","4","56","lm99","21","female","right","68","33","7","10","6","{""Q0"":""lm99""}","","","","","","","",""
"5403.049999848008","","","survey-text","2","50717","0.0-2.0","vdgnr9","Wed Feb 10 2021 18:04:56 GMT+0100 (Central European Standard Time)","2021","2","10","18","4","56","lm99","21","female","right","68","33","7","10","6","{""Q0"":""21""}","","","","","","","",""
"10858.989999862388","","","survey-multi-select","3","61583","0.0-3.0","vdgnr9","Wed Feb 10 2021 18:04:56 GMT+0100 (Central European Standard Time)","2021","2","10","18","4","56","lm99","21","female","right","68","33","7","10","6","{""Gender"":[""female""],""Hand"":[""right""]}","[0,1]","","","","","","",""
"13961.644999915734","<p>How Sad/Angry or Happy are you right now?</p>","","html-slider-response","4","75548","0.0-4.0","vdgnr9","Wed Feb 10 2021 18:04:56 GMT+0100 (Central European Standard Time)","2021","2","10","18","4","56","lm99","21","female","right","68","33","7","10","6","","","50","68","","","","",""
"9331.514999968931","<p>How Tired/Sleepy/Distracted or Fresh/Awake/Alert are you right now?</p>","","html-slider-response","5","84881","0.0-5.0","vdgnr9","Wed Feb 10 2021 18:04:56 GMT+0100 (Central European Standard Time)","2021","2","10","18","4","56","lm99","21","female","right","68","33","7","10","6","","","50","33","","","","",""
"11300.634999992326","<p>How Hungry or Satiated are you right now?</p>","","html-slider-response","6","96184","0.0-6.0","vdgnr9","Wed Feb 10 2021 18:04:56 GMT+0100 (Central European Standard Time)","2021","2","10","18","4","56","lm99","21","female","right","68","33","7","10","6","","","50","7","","","","",""
"29190.3600001242","","","survey-multi-select","7","125397","0.0-7.0","vdgnr9","Wed Feb 10 2021 18:04:56 GMT+0100 (Central European Standard Time)","2021","2","10","18","4","56","lm99","21","female","right","68","33","7","10","6","{""Sleep"":[""10""],""Eat"":[""6""]}","[0,1]","","","","","","",""
"47232.9599999357","<p>In this experiment, a face and a word will appear in the center of the screen.</p><p>If the face is <strong>happy</strong>, press the letter <strong>H</strong> with <strong>right</strong> index finger.</p><p>If the face is <strong>fearful</strong>, press the letter <strong>F</strong> with <strong>left</strong> index finger.</p><p><strong>Ignore the written words</strong>. Respond as fast as possible while being correct. </p><div style='width: 900px;'><div style='float: left;'><img src='img/stimuli_stroop_happy.png'></img><p class='small'><strong>Press the H key for happy faces</strong></p></div><div class='float: right;'><img src='img/stimuli_stroop_fear.png'></img><p class='small'><strong>Press the F key for faces with fear</strong></p></div></div><p>If the screen turns blank, press <strong>SPACE</strong></p><p><strong>Press any key to begin.</strong></p>","72","html-keyboard-response","8","172631","0.0-8.0","vdgnr9","Wed Feb 10 2021 18:04:56 GMT+0100 (Central European Standard Time)","2021","2","10","18","4","56","lm99","21","female","right","68","33","7","10","6","","","","","","","","",""
"null","<div style=""font-size:60px;"">+</div>","null","html-keyboard-response","9","175387","0.0-9.0-0.0","vdgnr9","Wed Feb 10 2021 18:04:56 GMT+0100 (Central European Standard Time)","2021","2","10","18","4","56","lm99","21","female","right","68","33","7","10","6","","","","","fixation","","","",""
"830.4999999236315","img/image_stim_h.png","72","image-keyboard-response","10","176233","0.0-9.0-1.0","vdgnr9","Wed Feb 10 2021 18:04:56 GMT+0100 (Central European Standard Time)","2021","2","10","18","4","56","lm99","21","female","right","68","33","7","10","6","","","","","test","happy","happy","h","true"
"null","<div style=""font-size:60px;"">+</div>","null","html-keyboard-response","11","178240","0.0-9.0-0.1","vdgnr9","Wed Feb 10 2021 18:04:56 GMT+0100 (Central European Standard Time)","2021","2","10","18","4","56","lm99","21","female","right","68","33","7","10","6","","","","","fixation","","","",""
"827.6250001508743","img/image_stim_f.png","70","image-keyboard-response","12","179070","0.0-9.0-1.1","vdgnr9","Wed Feb 10 2021 18:04:56 GMT+0100 (Central European Standard Time)","2021","2","10","18","4","56","lm99","21","female","right","68","33","7","10","6","","","","","test","fear","fear","f","true"
"null","<div style=""font-size:60px;"">+</div>","null","html-keyboard-response","13","179831","0.0-9.0-0.2","vdgnr9","Wed Feb 10 2021 18:04:56 GMT+0100 (Central European Standard Time)","2021","2","10","18","4","56","lm99","21","female","right","68","33","7","10","6","","","","","fixation","","","",""
"2544.5449999533594","img/image_stim_f_stroop.png","70","image-keyboard-response","14","182378","0.0-9.0-1.2","vdgnr9","Wed Feb 10 2021 18:04:56 GMT+0100 (Central European Standard Time)","2021","2","10","18","4","56","lm99","21","female","right","68","33","7","10","6","","","","","test","fear","happy","f","true"
"null","<div style=""font-size:60px;"">+</div>","null","html-keyboard-response","15","183383","0.0-9.0-0.3","vdgnr9","Wed Feb 10 2021 18:04:56 GMT+0100 (Central European Standard Time)","2021","2","10","18","4","56","lm99","21","female","right","68","33","7","10","6","","","","","fixation","","","",""
"1171.8050001654774","img/image_stim_h_stroop.png","72","image-keyboard-response","16","184558","0.0-9.0-1.3","vdgnr9","Wed Feb 10 2021 18:04:56 GMT+0100 (Central European Standard Time)","2021","2","10","18","4","56","lm99","21","female","right","68","33","7","10","6","","","","","test","happy","fear","h","true"
"null","<div style=""font-size:60px;"">+</div>","null","html-keyboard-response","17","186068","0.0-9.0-0.4","vdgnr9","Wed Feb 10 2021 18:04:56 GMT+0100 (Central European Standard Time)","2021","2","10","18","4","56","lm99","21","female","right","68","33","7","10","6","","","","","fixation","","","",""
"1276.6650000121444","img/image_stim_f.png","70","image-keyboard-response","18","187347","0.0-9.0-1.4","vdgnr9","Wed Feb 10 2021 18:04:56 GMT+0100 (Central European Standard Time)","2021","2","10","18","4","56","lm99","21","female","right","68","33","7","10","6","","","","","test","fear","fear","f","true"
"null","<div style=""font-size:60px;"">+</div>","null","html-keyboard-response","19","188353","0.0-9.0-0.5","vdgnr9","Wed Feb 10 2021 18:04:56 GMT+0100 (Central European Standard Time)","2021","2","10","18","4","56","lm99","21","female","right","68","33","7","10","6","","","","","fixation","","","",""
"953.1549999956042","img/image_stim_f_stroop.png","70","image-keyboard-response","20","189308","0.0-9.0-1.5","vdgnr9","Wed Feb 10 2021 18:04:56 GMT+0100 (Central European Standard Time)","2021","2","10","18","4","56","lm99","21","female","right","68","33","7","10","6","","","","","test","fear","happy","f","true"
"null","<div style=""font-size:60px;"">+</div>","null","html-keyboard-response","21","191063","0.0-9.0-0.6","vdgnr9","Wed Feb 10 2021 18:04:56 GMT+0100 (Central European Standard Time)","2021","2","10","18","4","56","lm99","21","female","right","68","33","7","10","6","","","","","fixation","","","",""
"1325.5199999548495","img/image_stim_h_stroop.png","72","image-keyboard-response","22","192392","0.0-9.0-1.6","vdgnr9","Wed Feb 10 2021 18:04:56 GMT+0100 (Central European Standard Time)","2021","2","10","18","4","56","lm99","21","female","right","68","33","7","10","6","","","","","test","happy","fear","h","true"
"null","<div style=""font-size:60px;"">+</div>","null","html-keyboard-response","23","194155","0.0-9.0-0.7","vdgnr9","Wed Feb 10 2021 18:04:56 GMT+0100 (Central European Standard Time)","2021","2","10","18","4","56","lm99","21","female","right","68","33","7","10","6","","","","","fixation","","","",""
"601.9400001969188","img/image_stim_h.png","72","image-keyboard-response","24","194761","0.0-9.0-1.7","vdgnr9","Wed Feb 10 2021 18:04:56 GMT+0100 (Central European Standard Time)","2021","2","10","18","4","56","lm99","21","female","right","68","33","7","10","6","","","","","test","happy","happy","h","true"
"null","<div style=""font-size:60px;"">+</div>","null","html-keyboard-response","25","195017","0.0-9.0-0.8","vdgnr9","Wed Feb 10 2021 18:04:56 GMT+0100 (Central European Standard Time)","2021","2","10","18","4","56","lm99","21","female","right","68","33","7","10","6","","","","","fixation","","","",""
"1098.6549998633564","img/image_stim_f_stroop.png","70","image-keyboard-response","26","196118","0.0-9.0-1.8","vdgnr9","Wed Feb 10 2021 18:04:56 GMT+0100 (Central European Standard Time)","2021","2","10","18","4","56","lm99","21","female","right","68","33","7","10","6","","","","","test","fear","happy","f","true"
"null","<div style=""font-size:60px;"">+</div>","null","html-keyboard-response","27","197122","0.0-9.0-0.9","vdgnr9","Wed Feb 10 2021 18:04:56 GMT+0100 (Central European Standard Time)","2021","2","10","18","4","56","lm99","21","female","right","68","33","7","10","6","","","","","fixation","","","",""
"938.4449999779463","img/image_stim_h_stroop.png","72","image-keyboard-response","28","198063","0.0-9.0-1.9","vdgnr9","Wed Feb 10 2021 18:04:56 GMT+0100 (Central European Standard Time)","2021","2","10","18","4","56","lm99","21","female","right","68","33","7","10","6","","","","","test","happy","fear","h","true"
"null","<div style=""font-size:60px;"">+</div>","null","html-keyboard-response","29","198568","0.0-9.0-0.10","vdgnr9","Wed Feb 10 2021 18:04:56 GMT+0100 (Central European Standard Time)","2021","2","10","18","4","56","lm99","21","female","right","68","33","7","10","6","","","","","fixation","","","",""
"2024.6150000020862","img/image_stim_h.png","72","image-keyboard-response","30","200595","0.0-9.0-1.10","vdgnr9","Wed Feb 10 2021 18:04:56 GMT+0100 (Central European Standard Time)","2021","2","10","18","4","56","lm99","21","female","right","68","33","7","10","6","","","","","test","happy","happy","h","true"
"null","<div style=""font-size:60px;"">+</div>","null","html-keyboard-response","31","200853","0.0-9.0-0.11","vdgnr9","Wed Feb 10 2021 18:04:56 GMT+0100 (Central European Standard Time)","2021","2","10","18","4","56","lm99","21","female","right","68","33","7","10","6","","","","","fixation","","","",""
"1972.5999999791384","img/image_stim_f.png","70","image-keyboard-response","32","202829","0.0-9.0-1.11","vdgnr9","Wed Feb 10 2021 18:04:56 GMT+0100 (Central European Standard Time)","2021","2","10","18","4","56","lm99","21","female","right","68","33","7","10","6","","","","","test","fear","fear","f","true"
"null","<div style=""font-size:60px;"">+</div>","null","html-keyboard-response","33","204841","0.0-9.0-0.12","vdgnr9","Wed Feb 10 2021 18:04:56 GMT+0100 (Central European Standard Time)","2021","2","10","18","4","56","lm99","21","female","right","68","33","7","10","6","","","","","fixation","","","",""
"988.3850000333041","img/image_stim_h_stroop.png","72","image-keyboard-response","34","205832","0.0-9.0-1.12","vdgnr9","Wed Feb 10 2021 18:04:56 GMT+0100 (Central European Standard Time)","2021","2","10","18","4","56","lm99","21","female","right","68","33","7","10","6","","","","","test","happy","fear","h","true"
"null","<div style=""font-size:60px;"">+</div>","null","html-keyboard-response","35","207841","0.0-9.0-0.13","vdgnr9","Wed Feb 10 2021 18:04:56 GMT+0100 (Central European Standard Time)","2021","2","10","18","4","56","lm99","21","female","right","68","33","7","10","6","","","","","fixation","","","",""
"1117.534999968484","img/image_stim_f.png","70","image-keyboard-response","36","208960","0.0-9.0-1.13","vdgnr9","Wed Feb 10 2021 18:04:56 GMT+0100 (Central European Standard Time)","2021","2","10","18","4","56","lm99","21","female","right","68","33","7","10","6","","","","","test","fear","fear","f","true"
"null","<div style=""font-size:60px;"">+</div>","null","html-keyboard-response","37","210220","0.0-9.0-0.14","vdgnr9","Wed Feb 10 2021 18:04:56 GMT+0100 (Central European Standard Time)","2021","2","10","18","4","56","lm99","21","female","right","68","33","7","10","6","","","","","fixation","","","",""
"824.9049999285489","img/image_stim_f_stroop.png","70","image-keyboard-response","38","211047","0.0-9.0-1.14","vdgnr9","Wed Feb 10 2021 18:04:56 GMT+0100 (Central European Standard Time)","2021","2","10","18","4","56","lm99","21","female","right","68","33","7","10","6","","","","","test","fear","happy","f","true"
"null","<div style=""font-size:60px;"">+</div>","null","html-keyboard-response","39","212554","0.0-9.0-0.15","vdgnr9","Wed Feb 10 2021 18:04:56 GMT+0100 (Central European Standard Time)","2021","2","10","18","4","56","lm99","21","female","right","68","33","7","10","6","","","","","fixation","","","",""
"829.1949999984354","img/image_stim_h.png","72","image-keyboard-response","40","213386","0.0-9.0-1.15","vdgnr9","Wed Feb 10 2021 18:04:56 GMT+0100 (Central European Standard Time)","2021","2","10","18","4","56","lm99","21","female","right","68","33","7","10","6","","","","","test","happy","happy","h","true"
"null","<div style=""font-size:60px;"">+</div>","null","html-keyboard-response","41","213644","0.0-9.0-0.16","vdgnr9","Wed Feb 10 2021 18:04:56 GMT+0100 (Central European Standard Time)","2021","2","10","18","4","56","lm99","21","female","right","68","33","7","10","6","","","","","fixation","","","",""
"687.1350000146776","img/image_stim_h_stroop.png","72","image-keyboard-response","42","214334","0.0-9.0-1.16","vdgnr9","Wed Feb 10 2021 18:04:56 GMT+0100 (Central European Standard Time)","2021","2","10","18","4","56","lm99","21","female","right","68","33","7","10","6","","","","","test","happy","fear","h","true"
"null","<div style=""font-size:60px;"">+</div>","null","html-keyboard-response","43","215339","0.0-9.0-0.17","vdgnr9","Wed Feb 10 2021 18:04:56 GMT+0100 (Central European Standard Time)","2021","2","10","18","4","56","lm99","21","female","right","68","33","7","10","6","","","","","fixation","","","",""
"737.8500001505017","img/image_stim_f.png","70","image-keyboard-response","44","216078","0.0-9.0-1.17","vdgnr9","Wed Feb 10 2021 18:04:56 GMT+0100 (Central European Standard Time)","2021","2","10","18","4","56","lm99","21","female","right","68","33","7","10","6","","","","","test","fear","fear","f","true"
"null","<div style=""font-size:60px;"">+</div>","null","html-keyboard-response","45","217088","0.0-9.0-0.18","vdgnr9","Wed Feb 10 2021 18:04:56 GMT+0100 (Central European Standard Time)","2021","2","10","18","4","56","lm99","21","female","right","68","33","7","10","6","","","","","fixation","","","",""
"489.46499987505376","img/image_stim_h.png","72","image-keyboard-response","46","217580","0.0-9.0-1.18","vdgnr9","Wed Feb 10 2021 18:04:56 GMT+0100 (Central European Standard Time)","2021","2","10","18","4","56","lm99","21","female","right","68","33","7","10","6","","","","","test","happy","happy","h","true"
"null","<div style=""font-size:60px;"">+</div>","null","html-keyboard-response","47","218839","0.0-9.0-0.19","vdgnr9","Wed Feb 10 2021 18:04:56 GMT+0100 (Central European Standard Time)","2021","2","10","18","4","56","lm99","21","female","right","68","33","7","10","6","","","","","fixation","","","",""
"729.1699999477714","img/image_stim_f_stroop.png","70","image-keyboard-response","48","219571","0.0-9.0-1.19","vdgnr9","Wed Feb 10 2021 18:04:56 GMT+0100 (Central European Standard Time)","2021","2","10","18","4","56","lm99","21","female","right","68","33","7","10","6","","","","","test","fear","happy","f","true"
"null","<div style=""font-size:60px;"">+</div>","null","html-keyboard-response","49","220583","0.0-9.0-0.20","vdgnr9","Wed Feb 10 2021 18:04:56 GMT+0100 (Central European Standard Time)","2021","2","10","18","4","56","lm99","21","female","right","68","33","7","10","6","","","","","fixation","","","",""
"1159.9649998825043","img/image_stim_h_stroop.png","72","image-keyboard-response","50","221746","0.0-9.0-1.20","vdgnr9","Wed Feb 10 2021 18:04:56 GMT+0100 (Central European Standard Time)","2021","2","10","18","4","56","lm99","21","female","right","68","33","7","10","6","","","","","test","happy","fear","h","true"
"null","<div style=""font-size:60px;"">+</div>","null","html-keyboard-response","51","223257","0.0-9.0-0.21","vdgnr9","Wed Feb 10 2021 18:04:56 GMT+0100 (Central European Standard Time)","2021","2","10","18","4","56","lm99","21","female","right","68","33","7","10","6","","","","","fixation","","","",""
"905.2550001069903","img/image_stim_f_stroop.png","70","image-keyboard-response","52","224166","0.0-9.0-1.21","vdgnr9","Wed Feb 10 2021 18:04:56 GMT+0100 (Central European Standard Time)","2021","2","10","18","4","56","lm99","21","female","right","68","33","7","10","6","","","","","test","fear","happy","f","true"
"null","<div style=""font-size:60px;"">+</div>","null","html-keyboard-response","53","225175","0.0-9.0-0.22","vdgnr9","Wed Feb 10 2021 18:04:56 GMT+0100 (Central European Standard Time)","2021","2","10","18","4","56","lm99","21","female","right","68","33","7","10","6","","","","","fixation","","","",""
"601.120000006631","img/image_stim_f.png","70","image-keyboard-response","54","225778","0.0-9.0-1.22","vdgnr9","Wed Feb 10 2021 18:04:56 GMT+0100 (Central European Standard Time)","2021","2","10","18","4","56","lm99","21","female","right","68","33","7","10","6","","","","","test","fear","fear","f","true"
"null","<div style=""font-size:60px;"">+</div>","null","html-keyboard-response","55","227788","0.0-9.0-0.23","vdgnr9","Wed Feb 10 2021 18:04:56 GMT+0100 (Central European Standard Time)","2021","2","10","18","4","56","lm99","21","female","right","68","33","7","10","6","","","","","fixation","","","",""
"542.3449999652803","img/image_stim_h.png","72","image-keyboard-response","56","228333","0.0-9.0-1.23","vdgnr9","Wed Feb 10 2021 18:04:56 GMT+0100 (Central European Standard Time)","2021","2","10","18","4","56","lm99","21","female","right","68","33","7","10","6","","","","","test","happy","happy","h","true"
"null","<div style=""font-size:60px;"">+</div>","null","html-keyboard-response","57","229339","0.0-9.0-0.24","vdgnr9","Wed Feb 10 2021 18:04:56 GMT+0100 (Central European Standard Time)","2021","2","10","18","4","56","lm99","21","female","right","68","33","7","10","6","","","","","fixation","","","",""
"4044.465000042692","img/image_stim_h_stroop.png","72","image-keyboard-response","58","233385","0.0-9.0-1.24","vdgnr9","Wed Feb 10 2021 18:04:56 GMT+0100 (Central European Standard Time)","2021","2","10","18","4","56","lm99","21","female","right","68","33","7","10","6","","","","","test","happy","fear","h","true"
"null","<div style=""font-size:60px;"">+</div>","null","html-keyboard-response","59","235145","0.0-9.0-0.25","vdgnr9","Wed Feb 10 2021 18:04:56 GMT+0100 (Central European Standard Time)","2021","2","10","18","4","56","lm99","21","female","right","68","33","7","10","6","","","","","fixation","","","",""
"1879.4299999717623","img/image_stim_f.png","70","image-keyboard-response","60","237028","0.0-9.0-1.25","vdgnr9","Wed Feb 10 2021 18:04:56 GMT+0100 (Central European Standard Time)","2021","2","10","18","4","56","lm99","21","female","right","68","33","7","10","6","","","","","test","fear","fear","f","true"
"null","<div style=""font-size:60px;"">+</div>","null","html-keyboard-response","61","238788","0.0-9.0-0.26","vdgnr9","Wed Feb 10 2021 18:04:56 GMT+0100 (Central European Standard Time)","2021","2","10","18","4","56","lm99","21","female","right","68","33","7","10","6","","","","","fixation","","","",""
"759.699999820441","img/image_stim_f_stroop.png","70","image-keyboard-response","62","239550","0.0-9.0-1.26","vdgnr9","Wed Feb 10 2021 18:04:56 GMT+0100 (Central European Standard Time)","2021","2","10","18","4","56","lm99","21","female","right","68","33","7","10","6","","","","","test","fear","happy","f","true"
"null","<div style=""font-size:60px;"">+</div>","null","html-keyboard-response","63","241056","0.0-9.0-0.27","vdgnr9","Wed Feb 10 2021 18:04:56 GMT+0100 (Central European Standard Time)","2021","2","10","18","4","56","lm99","21","female","right","68","33","7","10","6","","","","","fixation","","","",""
"1055.4650002159178","img/image_stim_h.png","72","image-keyboard-response","64","242115","0.0-9.0-1.27","vdgnr9","Wed Feb 10 2021 18:04:56 GMT+0100 (Central European Standard Time)","2021","2","10","18","4","56","lm99","21","female","right","68","33","7","10","6","","","","","test","happy","happy","h","true"
"null","<div style=""font-size:60px;"">+</div>","null","html-keyboard-response","65","243374","0.0-9.0-0.28","vdgnr9","Wed Feb 10 2021 18:04:56 GMT+0100 (Central European Standard Time)","2021","2","10","18","4","56","lm99","21","female","right","68","33","7","10","6","","","","","fixation","","","",""
"1149.1949998307973","img/image_stim_h.png","72","image-keyboard-response","66","244526","0.0-9.0-1.28","vdgnr9","Wed Feb 10 2021 18:04:56 GMT+0100 (Central European Standard Time)","2021","2","10","18","4","56","lm99","21","female","right","68","33","7","10","6","","","","","test","happy","happy","h","true"
"null","<div style=""font-size:60px;"">+</div>","null","html-keyboard-response","67","245029","0.0-9.0-0.29","vdgnr9","Wed Feb 10 2021 18:04:56 GMT+0100 (Central European Standard Time)","2021","2","10","18","4","56","lm99","21","female","right","68","33","7","10","6","","","","","fixation","","","",""
"1293.1450000032783","img/image_stim_h_stroop.png","72","image-keyboard-response","68","246325","0.0-9.0-1.29","vdgnr9","Wed Feb 10 2021 18:04:56 GMT+0100 (Central European Standard Time)","2021","2","10","18","4","56","lm99","21","female","right","68","33","7","10","6","","","","","test","happy","fear","h","true"
"null","<div style=""font-size:60px;"">+</div>","null","html-keyboard-response","69","247335","0.0-9.0-0.30","vdgnr9","Wed Feb 10 2021 18:04:56 GMT+0100 (Central European Standard Time)","2021","2","10","18","4","56","lm99","21","female","right","68","33","7","10","6","","","","","fixation","","","",""
"439.6349999587983","img/image_stim_f.png","70","image-keyboard-response","70","247777","0.0-9.0-1.30","vdgnr9","Wed Feb 10 2021 18:04:56 GMT+0100 (Central European Standard Time)","2021","2","10","18","4","56","lm99","21","female","right","68","33","7","10","6","","","","","test","fear","fear","f","true"
"null","<div style=""font-size:60px;"">+</div>","null","html-keyboard-response","71","248282","0.0-9.0-0.31","vdgnr9","Wed Feb 10 2021 18:04:56 GMT+0100 (Central European Standard Time)","2021","2","10","18","4","56","lm99","21","female","right","68","33","7","10","6","","","","","fixation","","","",""
"550.5150000099093","img/image_stim_f_stroop.png","70","image-keyboard-response","72","248835","0.0-9.0-1.31","vdgnr9","Wed Feb 10 2021 18:04:56 GMT+0100 (Central European Standard Time)","2021","2","10","18","4","56","lm99","21","female","right","68","33","7","10","6","","","","","test","fear","happy","f","true"
"null","<div style=""font-size:60px;"">+</div>","null","html-keyboard-response","73","249341","0.0-9.0-0.32","vdgnr9","Wed Feb 10 2021 18:04:56 GMT+0100 (Central European Standard Time)","2021","2","10","18","4","56","lm99","21","female","right","68","33","7","10","6","","","","","fixation","","","",""
"515.6000000424683","img/image_stim_f.png","70","image-keyboard-response","74","249859","0.0-9.0-1.32","vdgnr9","Wed Feb 10 2021 18:04:56 GMT+0100 (Central European Standard Time)","2021","2","10","18","4","56","lm99","21","female","right","68","33","7","10","6","","","","","test","fear","fear","f","true"
"null","<div style=""font-size:60px;"">+</div>","null","html-keyboard-response","75","250619","0.0-9.0-0.33","vdgnr9","Wed Feb 10 2021 18:04:56 GMT+0100 (Central European Standard Time)","2021","2","10","18","4","56","lm99","21","female","right","68","33","7","10","6","","","","","fixation","","","",""
"548.115000128746","img/image_stim_h.png","72","image-keyboard-response","76","251169","0.0-9.0-1.33","vdgnr9","Wed Feb 10 2021 18:04:56 GMT+0100 (Central European Standard Time)","2021","2","10","18","4","56","lm99","21","female","right","68","33","7","10","6","","","","","test","happy","happy","h","true"
"null","<div style=""font-size:60px;"">+</div>","null","html-keyboard-response","77","251428","0.0-9.0-0.34","vdgnr9","Wed Feb 10 2021 18:04:56 GMT+0100 (Central European Standard Time)","2021","2","10","18","4","56","lm99","21","female","right","68","33","7","10","6","","","","","fixation","","","",""
"576.6400001011789","img/image_stim_f_stroop.png","70","image-keyboard-response","78","252007","0.0-9.0-1.34","vdgnr9","Wed Feb 10 2021 18:04:56 GMT+0100 (Central European Standard Time)","2021","2","10","18","4","56","lm99","21","female","right","68","33","7","10","6","","","","","test","fear","happy","f","true"
"null","<div style=""font-size:60px;"">+</div>","null","html-keyboard-response","79","252267","0.0-9.0-0.35","vdgnr9","Wed Feb 10 2021 18:04:56 GMT+0100 (Central European Standard Time)","2021","2","10","18","4","56","lm99","21","female","right","68","33","7","10","6","","","","","fixation","","","",""
"519.33000003919","img/image_stim_h_stroop.png","72","image-keyboard-response","80","252788","0.0-9.0-1.35","vdgnr9","Wed Feb 10 2021 18:04:56 GMT+0100 (Central European Standard Time)","2021","2","10","18","4","56","lm99","21","female","right","68","33","7","10","6","","","","","test","happy","fear","h","true"
