"rt","stimulus","key_press","trial_type","trial_index","time_elapsed","internal_node_id","exp_id","Time","year","month","date","hour","minute","seconds","id","age","Gender","Handedness","mood","fresh","hunger","H_since_Sleep","H_since_Eat","responses","question_order","slider_start","response","test_part","face","word","correct_response","correct"
"1560","<p>Welcome to this experiment on daily rhythms and cognition.</p><p>First you will be asked some questions about yourself.</p><p>Then a short experiment will measure your response time.</p><p>Take the test at different times of the day/night.</p><p>The test is anonymous, but comparing your data across time is important.</p><p>Therefore, please make up and remember a personal ID (two letters+ two numbers).</p><p>Use this ID whenever taking the test.</p><p><strong>Press any key to begin.</strong></p>","32","html-keyboard-response","0","1559","0.0-0.0","jw9wxw","Tue Feb 16 2021 01:13:05 GMT+0100 (CET)","2021","2","16","1","13","5","BB16","20","female","right","50","10","35","19","5","","","","","","","","",""
"2718.000000000001","","","survey-text","1","4302","0.0-1.0","jw9wxw","Tue Feb 16 2021 01:13:05 GMT+0100 (CET)","2021","2","16","1","13","5","BB16","20","female","right","50","10","35","19","5","{""Q0"":""BB16""}","","","","","","","",""
"1724.000000000001","","","survey-text","2","6033","0.0-2.0","jw9wxw","Tue Feb 16 2021 01:13:05 GMT+0100 (CET)","2021","2","16","1","13","5","BB16","20","female","right","50","10","35","19","5","{""Q0"":""20""}","","","","","","","",""
"3029.000000000002","","","survey-multi-select","3","9064","0.0-3.0","jw9wxw","Tue Feb 16 2021 01:13:05 GMT+0100 (CET)","2021","2","16","1","13","5","BB16","20","female","right","50","10","35","19","5","{""Gender"":[""female""],""Hand"":[""right""]}","[0,1]","","","","","","",""
"7711","<p>How Sad/Angry or Happy are you right now?</p>","","html-slider-response","4","16768","0.0-4.0","jw9wxw","Tue Feb 16 2021 01:13:05 GMT+0100 (CET)","2021","2","16","1","13","5","BB16","20","female","right","50","10","35","19","5","","","50","50","","","","",""
"3535","<p>How Tired/Sleepy/Distracted or Fresh/Awake/Alert are you right now?</p>","","html-slider-response","5","20307","0.0-5.0","jw9wxw","Tue Feb 16 2021 01:13:05 GMT+0100 (CET)","2021","2","16","1","13","5","BB16","20","female","right","50","10","35","19","5","","","50","10","","","","",""
"3859","<p>How Hungry or Satiated are you right now?</p>","","html-slider-response","6","24165","0.0-6.0","jw9wxw","Tue Feb 16 2021 01:13:05 GMT+0100 (CET)","2021","2","16","1","13","5","BB16","20","female","right","50","10","35","19","5","","","50","35","","","","",""
"41441","","","survey-multi-select","7","65617","0.0-7.0","jw9wxw","Tue Feb 16 2021 01:13:05 GMT+0100 (CET)","2021","2","16","1","13","5","BB16","20","female","right","50","10","35","19","5","{""Sleep"":[""19""],""Eat"":[""5""]}","[0,1]","","","","","","",""
"2503","<p>In this experiment, a face and a word will appear in the center of the screen.</p><p>If the face is <strong>happy</strong>, press the letter <strong>H</strong> with <strong>right</strong> index finger.</p><p>If the face is <strong>fearful</strong>, press the letter <strong>F</strong> with <strong>left</strong> index finger.</p><p><strong>Ignore the written words</strong>. Respond as fast as possible while being correct. </p><div style='width: 900px;'><div style='float: left;'><img src='img/stimuli_stroop_happy.png'></img><p class='small'><strong>Press the H key for happy faces</strong></p></div><div class='float: right;'><img src='img/stimuli_stroop_fear.png'></img><p class='small'><strong>Press the F key for faces with fear</strong></p></div></div><p>If the screen turns blank, press <strong>SPACE</strong></p><p><strong>Press any key to begin.</strong></p>","32","html-keyboard-response","8","68123","0.0-8.0","jw9wxw","Tue Feb 16 2021 01:13:05 GMT+0100 (CET)","2021","2","16","1","13","5","BB16","20","female","right","50","10","35","19","5","","","","","","","","",""
"null","<div style=""font-size:60px;"">+</div>","null","html-keyboard-response","9","70627","0.0-9.0-0.0","jw9wxw","Tue Feb 16 2021 01:13:05 GMT+0100 (CET)","2021","2","16","1","13","5","BB16","20","female","right","50","10","35","19","5","","","","","fixation","","","",""
"593","img/image_stim_f_stroop.png","70","image-keyboard-response","10","71227","0.0-9.0-1.0","jw9wxw","Tue Feb 16 2021 01:13:05 GMT+0100 (CET)","2021","2","16","1","13","5","BB16","20","female","right","50","10","35","19","5","","","","","test","fear","happy","f","true"
"null","<div style=""font-size:60px;"">+</div>","null","html-keyboard-response","11","71734","0.0-9.0-0.1","jw9wxw","Tue Feb 16 2021 01:13:05 GMT+0100 (CET)","2021","2","16","1","13","5","BB16","20","female","right","50","10","35","19","5","","","","","fixation","","","",""
"500","img/image_stim_h_stroop.png","72","image-keyboard-response","12","72238","0.0-9.0-1.1","jw9wxw","Tue Feb 16 2021 01:13:05 GMT+0100 (CET)","2021","2","16","1","13","5","BB16","20","female","right","50","10","35","19","5","","","","","test","happy","fear","h","true"
"null","<div style=""font-size:60px;"">+</div>","null","html-keyboard-response","13","72742","0.0-9.0-0.2","jw9wxw","Tue Feb 16 2021 01:13:05 GMT+0100 (CET)","2021","2","16","1","13","5","BB16","20","female","right","50","10","35","19","5","","","","","fixation","","","",""
"479","img/image_stim_f.png","70","image-keyboard-response","14","73226","0.0-9.0-1.2","jw9wxw","Tue Feb 16 2021 01:13:05 GMT+0100 (CET)","2021","2","16","1","13","5","BB16","20","female","right","50","10","35","19","5","","","","","test","fear","fear","f","true"
"null","<div style=""font-size:60px;"">+</div>","null","html-keyboard-response","15","74980","0.0-9.0-0.3","jw9wxw","Tue Feb 16 2021 01:13:05 GMT+0100 (CET)","2021","2","16","1","13","5","BB16","20","female","right","50","10","35","19","5","","","","","fixation","","","",""
"520","img/image_stim_h.png","72","image-keyboard-response","16","75505","0.0-9.0-1.3","jw9wxw","Tue Feb 16 2021 01:13:05 GMT+0100 (CET)","2021","2","16","1","13","5","BB16","20","female","right","50","10","35","19","5","","","","","test","happy","happy","h","true"
"null","<div style=""font-size:60px;"">+</div>","null","html-keyboard-response","17","77508","0.0-9.0-0.4","jw9wxw","Tue Feb 16 2021 01:13:05 GMT+0100 (CET)","2021","2","16","1","13","5","BB16","20","female","right","50","10","35","19","5","","","","","fixation","","","",""
"502","img/image_stim_h.png","72","image-keyboard-response","18","78012","0.0-9.0-1.4","jw9wxw","Tue Feb 16 2021 01:13:05 GMT+0100 (CET)","2021","2","16","1","13","5","BB16","20","female","right","50","10","35","19","5","","","","","test","happy","happy","h","true"
"null","<div style=""font-size:60px;"">+</div>","null","html-keyboard-response","19","78773","0.0-9.0-0.5","jw9wxw","Tue Feb 16 2021 01:13:05 GMT+0100 (CET)","2021","2","16","1","13","5","BB16","20","female","right","50","10","35","19","5","","","","","fixation","","","",""
"533","img/image_stim_f_stroop.png","70","image-keyboard-response","20","79310","0.0-9.0-1.5","jw9wxw","Tue Feb 16 2021 01:13:05 GMT+0100 (CET)","2021","2","16","1","13","5","BB16","20","female","right","50","10","35","19","5","","","","","test","fear","happy","f","true"
"null","<div style=""font-size:60px;"">+</div>","null","html-keyboard-response","21","79814","0.0-9.0-0.6","jw9wxw","Tue Feb 16 2021 01:13:05 GMT+0100 (CET)","2021","2","16","1","13","5","BB16","20","female","right","50","10","35","19","5","","","","","fixation","","","",""
"468","img/image_stim_h_stroop.png","72","image-keyboard-response","22","80285","0.0-9.0-1.6","jw9wxw","Tue Feb 16 2021 01:13:05 GMT+0100 (CET)","2021","2","16","1","13","5","BB16","20","female","right","50","10","35","19","5","","","","","test","happy","fear","h","true"
"null","<div style=""font-size:60px;"">+</div>","null","html-keyboard-response","23","81788","0.0-9.0-0.7","jw9wxw","Tue Feb 16 2021 01:13:05 GMT+0100 (CET)","2021","2","16","1","13","5","BB16","20","female","right","50","10","35","19","5","","","","","fixation","","","",""
"557","img/image_stim_f.png","70","image-keyboard-response","24","82348","0.0-9.0-1.7","jw9wxw","Tue Feb 16 2021 01:13:05 GMT+0100 (CET)","2021","2","16","1","13","5","BB16","20","female","right","50","10","35","19","5","","","","","test","fear","fear","f","true"
"null","<div style=""font-size:60px;"">+</div>","null","html-keyboard-response","25","84353","0.0-9.0-0.8","jw9wxw","Tue Feb 16 2021 01:13:05 GMT+0100 (CET)","2021","2","16","1","13","5","BB16","20","female","right","50","10","35","19","5","","","","","fixation","","","",""
"556","img/image_stim_f.png","70","image-keyboard-response","26","84911","0.0-9.0-1.8","jw9wxw","Tue Feb 16 2021 01:13:05 GMT+0100 (CET)","2021","2","16","1","13","5","BB16","20","female","right","50","10","35","19","5","","","","","test","fear","fear","f","true"
"null","<div style=""font-size:60px;"">+</div>","null","html-keyboard-response","27","86416","0.0-9.0-0.9","jw9wxw","Tue Feb 16 2021 01:13:05 GMT+0100 (CET)","2021","2","16","1","13","5","BB16","20","female","right","50","10","35","19","5","","","","","fixation","","","",""
"508","img/image_stim_f_stroop.png","70","image-keyboard-response","28","86932","0.0-9.0-1.9","jw9wxw","Tue Feb 16 2021 01:13:05 GMT+0100 (CET)","2021","2","16","1","13","5","BB16","20","female","right","50","10","35","19","5","","","","","test","fear","happy","f","true"
"null","<div style=""font-size:60px;"">+</div>","null","html-keyboard-response","29","88938","0.0-9.0-0.10","jw9wxw","Tue Feb 16 2021 01:13:05 GMT+0100 (CET)","2021","2","16","1","13","5","BB16","20","female","right","50","10","35","19","5","","","","","fixation","","","",""
"462","img/image_stim_h.png","72","image-keyboard-response","30","89403","0.0-9.0-1.10","jw9wxw","Tue Feb 16 2021 01:13:05 GMT+0100 (CET)","2021","2","16","1","13","5","BB16","20","female","right","50","10","35","19","5","","","","","test","happy","happy","h","true"
"null","<div style=""font-size:60px;"">+</div>","null","html-keyboard-response","31","90158","0.0-9.0-0.11","jw9wxw","Tue Feb 16 2021 01:13:05 GMT+0100 (CET)","2021","2","16","1","13","5","BB16","20","female","right","50","10","35","19","5","","","","","fixation","","","",""
"464","img/image_stim_h_stroop.png","72","image-keyboard-response","32","90626","0.0-9.0-1.11","jw9wxw","Tue Feb 16 2021 01:13:05 GMT+0100 (CET)","2021","2","16","1","13","5","BB16","20","female","right","50","10","35","19","5","","","","","test","happy","fear","h","true"
"null","<div style=""font-size:60px;"">+</div>","null","html-keyboard-response","33","91632","0.0-9.0-0.12","jw9wxw","Tue Feb 16 2021 01:13:05 GMT+0100 (CET)","2021","2","16","1","13","5","BB16","20","female","right","50","10","35","19","5","","","","","fixation","","","",""
"464","img/image_stim_h.png","72","image-keyboard-response","34","92099","0.0-9.0-1.12","jw9wxw","Tue Feb 16 2021 01:13:05 GMT+0100 (CET)","2021","2","16","1","13","5","BB16","20","female","right","50","10","35","19","5","","","","","test","happy","happy","h","true"
"null","<div style=""font-size:60px;"">+</div>","null","html-keyboard-response","35","92854","0.0-9.0-0.13","jw9wxw","Tue Feb 16 2021 01:13:05 GMT+0100 (CET)","2021","2","16","1","13","5","BB16","20","female","right","50","10","35","19","5","","","","","fixation","","","",""
"443","img/image_stim_f_stroop.png","70","image-keyboard-response","36","93300","0.0-9.0-1.13","jw9wxw","Tue Feb 16 2021 01:13:05 GMT+0100 (CET)","2021","2","16","1","13","5","BB16","20","female","right","50","10","35","19","5","","","","","test","fear","happy","f","true"
"null","<div style=""font-size:60px;"">+</div>","null","html-keyboard-response","37","94555","0.0-9.0-0.14","jw9wxw","Tue Feb 16 2021 01:13:05 GMT+0100 (CET)","2021","2","16","1","13","5","BB16","20","female","right","50","10","35","19","5","","","","","fixation","","","",""
"592","img/image_stim_f.png","70","image-keyboard-response","38","95155","0.0-9.0-1.14","jw9wxw","Tue Feb 16 2021 01:13:05 GMT+0100 (CET)","2021","2","16","1","13","5","BB16","20","female","right","50","10","35","19","5","","","","","test","fear","fear","f","true"
"null","<div style=""font-size:60px;"">+</div>","null","html-keyboard-response","39","95410","0.0-9.0-0.15","jw9wxw","Tue Feb 16 2021 01:13:05 GMT+0100 (CET)","2021","2","16","1","13","5","BB16","20","female","right","50","10","35","19","5","","","","","fixation","","","",""
"541.9999999999854","img/image_stim_h_stroop.png","72","image-keyboard-response","40","95956","0.0-9.0-1.15","jw9wxw","Tue Feb 16 2021 01:13:05 GMT+0100 (CET)","2021","2","16","1","13","5","BB16","20","female","right","50","10","35","19","5","","","","","test","happy","fear","h","true"
"null","<div style=""font-size:60px;"">+</div>","null","html-keyboard-response","41","97211","0.0-9.0-0.16","jw9wxw","Tue Feb 16 2021 01:13:05 GMT+0100 (CET)","2021","2","16","1","13","5","BB16","20","female","right","50","10","35","19","5","","","","","fixation","","","",""
"520","img/image_stim_f_stroop.png","70","image-keyboard-response","42","97734","0.0-9.0-1.16","jw9wxw","Tue Feb 16 2021 01:13:05 GMT+0100 (CET)","2021","2","16","1","13","5","BB16","20","female","right","50","10","35","19","5","","","","","test","fear","happy","f","true"
"null","<div style=""font-size:60px;"">+</div>","null","html-keyboard-response","43","99489","0.0-9.0-0.17","jw9wxw","Tue Feb 16 2021 01:13:05 GMT+0100 (CET)","2021","2","16","1","13","5","BB16","20","female","right","50","10","35","19","5","","","","","fixation","","","",""
"478","img/image_stim_f.png","70","image-keyboard-response","44","99970","0.0-9.0-1.17","jw9wxw","Tue Feb 16 2021 01:13:05 GMT+0100 (CET)","2021","2","16","1","13","5","BB16","20","female","right","50","10","35","19","5","","","","","test","fear","fear","f","true"
"null","<div style=""font-size:60px;"">+</div>","null","html-keyboard-response","45","101725","0.0-9.0-0.18","jw9wxw","Tue Feb 16 2021 01:13:05 GMT+0100 (CET)","2021","2","16","1","13","5","BB16","20","female","right","50","10","35","19","5","","","","","fixation","","","",""
"487","img/image_stim_h.png","72","image-keyboard-response","46","102214","0.0-9.0-1.18","jw9wxw","Tue Feb 16 2021 01:13:05 GMT+0100 (CET)","2021","2","16","1","13","5","BB16","20","female","right","50","10","35","19","5","","","","","test","happy","happy","h","true"
"null","<div style=""font-size:60px;"">+</div>","null","html-keyboard-response","47","103970","0.0-9.0-0.19","jw9wxw","Tue Feb 16 2021 01:13:05 GMT+0100 (CET)","2021","2","16","1","13","5","BB16","20","female","right","50","10","35","19","5","","","","","fixation","","","",""
"452.00000000001455","img/image_stim_h_stroop.png","70","image-keyboard-response","48","104425","0.0-9.0-1.19","jw9wxw","Tue Feb 16 2021 01:13:05 GMT+0100 (CET)","2021","2","16","1","13","5","BB16","20","female","right","50","10","35","19","5","","","","","test","happy","fear","h","false"
"null","<div style=""font-size:60px;"">+</div>","null","html-keyboard-response","49","105930","0.0-9.0-0.20","jw9wxw","Tue Feb 16 2021 01:13:05 GMT+0100 (CET)","2021","2","16","1","13","5","BB16","20","female","right","50","10","35","19","5","","","","","fixation","","","",""
"496.00000000001455","img/image_stim_h_stroop.png","72","image-keyboard-response","50","106429","0.0-9.0-1.20","jw9wxw","Tue Feb 16 2021 01:13:05 GMT+0100 (CET)","2021","2","16","1","13","5","BB16","20","female","right","50","10","35","19","5","","","","","test","happy","fear","h","true"
"null","<div style=""font-size:60px;"">+</div>","null","html-keyboard-response","51","108434","0.0-9.0-0.21","jw9wxw","Tue Feb 16 2021 01:13:05 GMT+0100 (CET)","2021","2","16","1","13","5","BB16","20","female","right","50","10","35","19","5","","","","","fixation","","","",""
"496","img/image_stim_h.png","72","image-keyboard-response","52","108938","0.0-9.0-1.21","jw9wxw","Tue Feb 16 2021 01:13:05 GMT+0100 (CET)","2021","2","16","1","13","5","BB16","20","female","right","50","10","35","19","5","","","","","test","happy","happy","h","true"
"null","<div style=""font-size:60px;"">+</div>","null","html-keyboard-response","53","109694","0.0-9.0-0.22","jw9wxw","Tue Feb 16 2021 01:13:05 GMT+0100 (CET)","2021","2","16","1","13","5","BB16","20","female","right","50","10","35","19","5","","","","","fixation","","","",""
"548","img/image_stim_f.png","70","image-keyboard-response","54","110246","0.0-9.0-1.22","jw9wxw","Tue Feb 16 2021 01:13:05 GMT+0100 (CET)","2021","2","16","1","13","5","BB16","20","female","right","50","10","35","19","5","","","","","test","fear","fear","f","true"
"null","<div style=""font-size:60px;"">+</div>","null","html-keyboard-response","55","112251","0.0-9.0-0.23","jw9wxw","Tue Feb 16 2021 01:13:05 GMT+0100 (CET)","2021","2","16","1","13","5","BB16","20","female","right","50","10","35","19","5","","","","","fixation","","","",""
"565","img/image_stim_f_stroop.png","70","image-keyboard-response","56","112819","0.0-9.0-1.23","jw9wxw","Tue Feb 16 2021 01:13:05 GMT+0100 (CET)","2021","2","16","1","13","5","BB16","20","female","right","50","10","35","19","5","","","","","test","fear","happy","f","true"
"null","<div style=""font-size:60px;"">+</div>","null","html-keyboard-response","57","113325","0.0-9.0-0.24","jw9wxw","Tue Feb 16 2021 01:13:05 GMT+0100 (CET)","2021","2","16","1","13","5","BB16","20","female","right","50","10","35","19","5","","","","","fixation","","","",""
"565","img/image_stim_f.png","70","image-keyboard-response","58","113893","0.0-9.0-1.24","jw9wxw","Tue Feb 16 2021 01:13:05 GMT+0100 (CET)","2021","2","16","1","13","5","BB16","20","female","right","50","10","35","19","5","","","","","test","fear","fear","f","true"
"null","<div style=""font-size:60px;"">+</div>","null","html-keyboard-response","59","114898","0.0-9.0-0.25","jw9wxw","Tue Feb 16 2021 01:13:05 GMT+0100 (CET)","2021","2","16","1","13","5","BB16","20","female","right","50","10","35","19","5","","","","","fixation","","","",""
"521","img/image_stim_h_stroop.png","72","image-keyboard-response","60","115423","0.0-9.0-1.25","jw9wxw","Tue Feb 16 2021 01:13:05 GMT+0100 (CET)","2021","2","16","1","13","5","BB16","20","female","right","50","10","35","19","5","","","","","test","happy","fear","h","true"
"null","<div style=""font-size:60px;"">+</div>","null","html-keyboard-response","61","116178","0.0-9.0-0.26","jw9wxw","Tue Feb 16 2021 01:13:05 GMT+0100 (CET)","2021","2","16","1","13","5","BB16","20","female","right","50","10","35","19","5","","","","","fixation","","","",""
"498.99999999998545","img/image_stim_h.png","72","image-keyboard-response","62","116681","0.0-9.0-1.26","jw9wxw","Tue Feb 16 2021 01:13:05 GMT+0100 (CET)","2021","2","16","1","13","5","BB16","20","female","right","50","10","35","19","5","","","","","test","happy","happy","h","true"
"null","<div style=""font-size:60px;"">+</div>","null","html-keyboard-response","63","118187","0.0-9.0-0.27","jw9wxw","Tue Feb 16 2021 01:13:05 GMT+0100 (CET)","2021","2","16","1","13","5","BB16","20","female","right","50","10","35","19","5","","","","","fixation","","","",""
"461","img/image_stim_f_stroop.png","70","image-keyboard-response","64","118658","0.0-9.0-1.27","jw9wxw","Tue Feb 16 2021 01:13:05 GMT+0100 (CET)","2021","2","16","1","13","5","BB16","20","female","right","50","10","35","19","5","","","","","test","fear","happy","f","true"
"null","<div style=""font-size:60px;"">+</div>","null","html-keyboard-response","65","120413","0.0-9.0-0.28","jw9wxw","Tue Feb 16 2021 01:13:05 GMT+0100 (CET)","2021","2","16","1","13","5","BB16","20","female","right","50","10","35","19","5","","","","","fixation","","","",""
"468","img/image_stim_h_stroop.png","72","image-keyboard-response","66","120884","0.0-9.0-1.28","jw9wxw","Tue Feb 16 2021 01:13:05 GMT+0100 (CET)","2021","2","16","1","13","5","BB16","20","female","right","50","10","35","19","5","","","","","test","happy","fear","h","true"
"null","<div style=""font-size:60px;"">+</div>","null","html-keyboard-response","67","121640","0.0-9.0-0.29","jw9wxw","Tue Feb 16 2021 01:13:05 GMT+0100 (CET)","2021","2","16","1","13","5","BB16","20","female","right","50","10","35","19","5","","","","","fixation","","","",""
"495","img/image_stim_h.png","72","image-keyboard-response","68","122138","0.0-9.0-1.29","jw9wxw","Tue Feb 16 2021 01:13:05 GMT+0100 (CET)","2021","2","16","1","13","5","BB16","20","female","right","50","10","35","19","5","","","","","test","happy","happy","h","true"
"null","<div style=""font-size:60px;"">+</div>","null","html-keyboard-response","69","122894","0.0-9.0-0.30","jw9wxw","Tue Feb 16 2021 01:13:05 GMT+0100 (CET)","2021","2","16","1","13","5","BB16","20","female","right","50","10","35","19","5","","","","","fixation","","","",""
"505","img/image_stim_f.png","70","image-keyboard-response","70","123402","0.0-9.0-1.30","jw9wxw","Tue Feb 16 2021 01:13:05 GMT+0100 (CET)","2021","2","16","1","13","5","BB16","20","female","right","50","10","35","19","5","","","","","test","fear","fear","f","true"
"null","<div style=""font-size:60px;"">+</div>","null","html-keyboard-response","71","125408","0.0-9.0-0.31","jw9wxw","Tue Feb 16 2021 01:13:05 GMT+0100 (CET)","2021","2","16","1","13","5","BB16","20","female","right","50","10","35","19","5","","","","","fixation","","","",""
"623.0000000000146","img/image_stim_f_stroop.png","70","image-keyboard-response","72","126039","0.0-9.0-1.31","jw9wxw","Tue Feb 16 2021 01:13:05 GMT+0100 (CET)","2021","2","16","1","13","5","BB16","20","female","right","50","10","35","19","5","","","","","test","fear","happy","f","true"
"null","<div style=""font-size:60px;"">+</div>","null","html-keyboard-response","73","127795","0.0-9.0-0.32","jw9wxw","Tue Feb 16 2021 01:13:05 GMT+0100 (CET)","2021","2","16","1","13","5","BB16","20","female","right","50","10","35","19","5","","","","","fixation","","","",""
"530","img/image_stim_f.png","70","image-keyboard-response","74","128328","0.0-9.0-1.32","jw9wxw","Tue Feb 16 2021 01:13:05 GMT+0100 (CET)","2021","2","16","1","13","5","BB16","20","female","right","50","10","35","19","5","","","","","test","fear","fear","f","true"
"null","<div style=""font-size:60px;"">+</div>","null","html-keyboard-response","75","128834","0.0-9.0-0.33","jw9wxw","Tue Feb 16 2021 01:13:05 GMT+0100 (CET)","2021","2","16","1","13","5","BB16","20","female","right","50","10","35","19","5","","","","","fixation","","","",""
"493","img/image_stim_h_stroop.png","72","image-keyboard-response","76","129330","0.0-9.0-1.33","jw9wxw","Tue Feb 16 2021 01:13:05 GMT+0100 (CET)","2021","2","16","1","13","5","BB16","20","female","right","50","10","35","19","5","","","","","test","happy","fear","h","true"
"null","<div style=""font-size:60px;"">+</div>","null","html-keyboard-response","77","131086","0.0-9.0-0.34","jw9wxw","Tue Feb 16 2021 01:13:05 GMT+0100 (CET)","2021","2","16","1","13","5","BB16","20","female","right","50","10","35","19","5","","","","","fixation","","","",""
"567","img/image_stim_f_stroop.png","70","image-keyboard-response","78","131656","0.0-9.0-1.34","jw9wxw","Tue Feb 16 2021 01:13:05 GMT+0100 (CET)","2021","2","16","1","13","5","BB16","20","female","right","50","10","35","19","5","","","","","test","fear","happy","f","true"
"null","<div style=""font-size:60px;"">+</div>","null","html-keyboard-response","79","132662","0.0-9.0-0.35","jw9wxw","Tue Feb 16 2021 01:13:05 GMT+0100 (CET)","2021","2","16","1","13","5","BB16","20","female","right","50","10","35","19","5","","","","","fixation","","","",""
"498","img/image_stim_h.png","72","image-keyboard-response","80","133168","0.0-9.0-1.35","jw9wxw","Tue Feb 16 2021 01:13:05 GMT+0100 (CET)","2021","2","16","1","13","5","BB16","20","female","right","50","10","35","19","5","","","","","test","happy","happy","h","true"
