"rt","stimulus","key_press","trial_type","trial_index","time_elapsed","internal_node_id","exp_id","Time","year","month","date","hour","minute","seconds","id","age","Gender","Handedness","mood","fresh","hunger","H_since_Sleep","H_since_Eat","responses","question_order","slider_start","response","test_part","face","word","correct_response","correct"
"4779","<p>Welcome to this experiment on daily rhythms and cognition.</p><p>First you will be asked some questions about yourself.</p><p>Then a short experiment will measure your response time.</p><p>Take the test at different times of the day/night.</p><p>The test is anonymous, but comparing your data across time is important.</p><p>Therefore, please make up and remember a personal ID (two letters+ two numbers).</p><p>Use this ID whenever taking the test.</p><p><strong>Press any key to begin.</strong></p>","32","html-keyboard-response","0","4782","0.0-0.0","ms7rgz","Wed Feb 10 2021 17:53:48 GMT+0100 (CET)","2021","2","10","17","53","48","tx12","20","female","right","75","36","46","10","2","","","","","","","","",""
"5342","","","survey-text","1","10149","0.0-1.0","ms7rgz","Wed Feb 10 2021 17:53:48 GMT+0100 (CET)","2021","2","10","17","53","48","tx12","20","female","right","75","36","46","10","2","{""Q0"":""tx12""}","","","","","","","",""
"2437.000000000002","","","survey-text","2","12593","0.0-2.0","ms7rgz","Wed Feb 10 2021 17:53:48 GMT+0100 (CET)","2021","2","10","17","53","48","tx12","20","female","right","75","36","46","10","2","{""Q0"":""20""}","","","","","","","",""
"4865","","","survey-multi-select","3","17469","0.0-3.0","ms7rgz","Wed Feb 10 2021 17:53:48 GMT+0100 (CET)","2021","2","10","17","53","48","tx12","20","female","right","75","36","46","10","2","{""Gender"":[""female""],""Hand"":[""right""]}","[0,1]","","","","","","",""
"11878","<p>How Sad/Angry or Happy are you right now?</p>","","html-slider-response","4","29356","0.0-4.0","ms7rgz","Wed Feb 10 2021 17:53:48 GMT+0100 (CET)","2021","2","10","17","53","48","tx12","20","female","right","75","36","46","10","2","","","50","75","","","","",""
"7874.999999999996","<p>How Tired/Sleepy/Distracted or Fresh/Awake/Alert are you right now?</p>","","html-slider-response","5","37232","0.0-5.0","ms7rgz","Wed Feb 10 2021 17:53:48 GMT+0100 (CET)","2021","2","10","17","53","48","tx12","20","female","right","75","36","46","10","2","","","50","36","","","","",""
"10144.000000000007","<p>How Hungry or Satiated are you right now?</p>","","html-slider-response","6","47379","0.0-6.0","ms7rgz","Wed Feb 10 2021 17:53:48 GMT+0100 (CET)","2021","2","10","17","53","48","tx12","20","female","right","75","36","46","10","2","","","50","46","","","","",""
"50973","","","survey-multi-select","7","98377","0.0-7.0","ms7rgz","Wed Feb 10 2021 17:53:48 GMT+0100 (CET)","2021","2","10","17","53","48","tx12","20","female","right","75","36","46","10","2","{""Sleep"":[""10""],""Eat"":[""2""]}","[0,1]","","","","","","",""
"12565.000000000015","<p>In this experiment, a face and a word will appear in the center of the screen.</p><p>If the face is <strong>happy</strong>, press the letter <strong>H</strong> with <strong>right</strong> index finger.</p><p>If the face is <strong>fearful</strong>, press the letter <strong>F</strong> with <strong>left</strong> index finger.</p><p><strong>Ignore the written words</strong>. Respond as fast as possible while being correct. </p><div style='width: 900px;'><div style='float: left;'><img src='img/stimuli_stroop_happy.png'></img><p class='small'><strong>Press the H key for happy faces</strong></p></div><div class='float: right;'><img src='img/stimuli_stroop_fear.png'></img><p class='small'><strong>Press the F key for faces with fear</strong></p></div></div><p>If the screen turns blank, press <strong>SPACE</strong></p><p><strong>Press any key to begin.</strong></p>","32","html-keyboard-response","8","110951","0.0-8.0","ms7rgz","Wed Feb 10 2021 17:53:48 GMT+0100 (CET)","2021","2","10","17","53","48","tx12","20","female","right","75","36","46","10","2","","","","","","","","",""
"null","<div style=""font-size:60px;"">+</div>","null","html-keyboard-response","9","114205","0.0-9.0-0.0","ms7rgz","Wed Feb 10 2021 17:53:48 GMT+0100 (CET)","2021","2","10","17","53","48","tx12","20","female","right","75","36","46","10","2","","","","","fixation","","","",""
"913","img/image_stim_h.png","72","image-keyboard-response","10","115130","0.0-9.0-1.0","ms7rgz","Wed Feb 10 2021 17:53:48 GMT+0100 (CET)","2021","2","10","17","53","48","tx12","20","female","right","75","36","46","10","2","","","","","test","happy","happy","h","true"
"null","<div style=""font-size:60px;"">+</div>","null","html-keyboard-response","11","116640","0.0-9.0-0.1","ms7rgz","Wed Feb 10 2021 17:53:48 GMT+0100 (CET)","2021","2","10","17","53","48","tx12","20","female","right","75","36","46","10","2","","","","","fixation","","","",""
"667","img/image_stim_f.png","70","image-keyboard-response","12","117313","0.0-9.0-1.1","ms7rgz","Wed Feb 10 2021 17:53:48 GMT+0100 (CET)","2021","2","10","17","53","48","tx12","20","female","right","75","36","46","10","2","","","","","test","fear","fear","f","true"
"null","<div style=""font-size:60px;"">+</div>","null","html-keyboard-response","13","118818","0.0-9.0-0.2","ms7rgz","Wed Feb 10 2021 17:53:48 GMT+0100 (CET)","2021","2","10","17","53","48","tx12","20","female","right","75","36","46","10","2","","","","","fixation","","","",""
"1289","img/image_stim_h_stroop.png","70","image-keyboard-response","14","120113","0.0-9.0-1.2","ms7rgz","Wed Feb 10 2021 17:53:48 GMT+0100 (CET)","2021","2","10","17","53","48","tx12","20","female","right","75","36","46","10","2","","","","","test","happy","fear","h","false"
"null","<div style=""font-size:60px;"">+</div>","null","html-keyboard-response","15","121868","0.0-9.0-0.3","ms7rgz","Wed Feb 10 2021 17:53:48 GMT+0100 (CET)","2021","2","10","17","53","48","tx12","20","female","right","75","36","46","10","2","","","","","fixation","","","",""
"1210","img/image_stim_f_stroop.png","70","image-keyboard-response","16","123083","0.0-9.0-1.3","ms7rgz","Wed Feb 10 2021 17:53:48 GMT+0100 (CET)","2021","2","10","17","53","48","tx12","20","female","right","75","36","46","10","2","","","","","test","fear","happy","f","true"
"null","<div style=""font-size:60px;"">+</div>","null","html-keyboard-response","17","123589","0.0-9.0-0.4","ms7rgz","Wed Feb 10 2021 17:53:48 GMT+0100 (CET)","2021","2","10","17","53","48","tx12","20","female","right","75","36","46","10","2","","","","","fixation","","","",""
"590.0000000000146","img/image_stim_h.png","72","image-keyboard-response","18","124184","0.0-9.0-1.4","ms7rgz","Wed Feb 10 2021 17:53:48 GMT+0100 (CET)","2021","2","10","17","53","48","tx12","20","female","right","75","36","46","10","2","","","","","test","happy","happy","h","true"
"null","<div style=""font-size:60px;"">+</div>","null","html-keyboard-response","19","124438","0.0-9.0-0.5","ms7rgz","Wed Feb 10 2021 17:53:48 GMT+0100 (CET)","2021","2","10","17","53","48","tx12","20","female","right","75","36","46","10","2","","","","","fixation","","","",""
"626.0000000000146","img/image_stim_f_stroop.png","70","image-keyboard-response","20","125067","0.0-9.0-1.5","ms7rgz","Wed Feb 10 2021 17:53:48 GMT+0100 (CET)","2021","2","10","17","53","48","tx12","20","female","right","75","36","46","10","2","","","","","test","fear","happy","f","true"
"null","<div style=""font-size:60px;"">+</div>","null","html-keyboard-response","21","126822","0.0-9.0-0.6","ms7rgz","Wed Feb 10 2021 17:53:48 GMT+0100 (CET)","2021","2","10","17","53","48","tx12","20","female","right","75","36","46","10","2","","","","","fixation","","","",""
"764","img/image_stim_f.png","70","image-keyboard-response","22","127589","0.0-9.0-1.6","ms7rgz","Wed Feb 10 2021 17:53:48 GMT+0100 (CET)","2021","2","10","17","53","48","tx12","20","female","right","75","36","46","10","2","","","","","test","fear","fear","f","true"
"null","<div style=""font-size:60px;"">+</div>","null","html-keyboard-response","23","129095","0.0-9.0-0.7","ms7rgz","Wed Feb 10 2021 17:53:48 GMT+0100 (CET)","2021","2","10","17","53","48","tx12","20","female","right","75","36","46","10","2","","","","","fixation","","","",""
"618","img/image_stim_h_stroop.png","72","image-keyboard-response","24","129716","0.0-9.0-1.7","ms7rgz","Wed Feb 10 2021 17:53:48 GMT+0100 (CET)","2021","2","10","17","53","48","tx12","20","female","right","75","36","46","10","2","","","","","test","happy","fear","h","true"
"null","<div style=""font-size:60px;"">+</div>","null","html-keyboard-response","25","131720","0.0-9.0-0.8","ms7rgz","Wed Feb 10 2021 17:53:48 GMT+0100 (CET)","2021","2","10","17","53","48","tx12","20","female","right","75","36","46","10","2","","","","","fixation","","","",""
"573.9999999999709","img/image_stim_h_stroop.png","72","image-keyboard-response","26","132297","0.0-9.0-1.8","ms7rgz","Wed Feb 10 2021 17:53:48 GMT+0100 (CET)","2021","2","10","17","53","48","tx12","20","female","right","75","36","46","10","2","","","","","test","happy","fear","h","true"
"null","<div style=""font-size:60px;"">+</div>","null","html-keyboard-response","27","133302","0.0-9.0-0.9","ms7rgz","Wed Feb 10 2021 17:53:48 GMT+0100 (CET)","2021","2","10","17","53","48","tx12","20","female","right","75","36","46","10","2","","","","","fixation","","","",""
"649","img/image_stim_h.png","72","image-keyboard-response","28","133954","0.0-9.0-1.9","ms7rgz","Wed Feb 10 2021 17:53:48 GMT+0100 (CET)","2021","2","10","17","53","48","tx12","20","female","right","75","36","46","10","2","","","","","test","happy","happy","h","true"
"null","<div style=""font-size:60px;"">+</div>","null","html-keyboard-response","29","135959","0.0-9.0-0.10","ms7rgz","Wed Feb 10 2021 17:53:48 GMT+0100 (CET)","2021","2","10","17","53","48","tx12","20","female","right","75","36","46","10","2","","","","","fixation","","","",""
"684","img/image_stim_f_stroop.png","70","image-keyboard-response","30","136646","0.0-9.0-1.10","ms7rgz","Wed Feb 10 2021 17:53:48 GMT+0100 (CET)","2021","2","10","17","53","48","tx12","20","female","right","75","36","46","10","2","","","","","test","fear","happy","f","true"
"null","<div style=""font-size:60px;"">+</div>","null","html-keyboard-response","31","137152","0.0-9.0-0.11","ms7rgz","Wed Feb 10 2021 17:53:48 GMT+0100 (CET)","2021","2","10","17","53","48","tx12","20","female","right","75","36","46","10","2","","","","","fixation","","","",""
"548","img/image_stim_f.png","70","image-keyboard-response","32","137703","0.0-9.0-1.11","ms7rgz","Wed Feb 10 2021 17:53:48 GMT+0100 (CET)","2021","2","10","17","53","48","tx12","20","female","right","75","36","46","10","2","","","","","test","fear","fear","f","true"
"null","<div style=""font-size:60px;"">+</div>","null","html-keyboard-response","33","139460","0.0-9.0-0.12","ms7rgz","Wed Feb 10 2021 17:53:48 GMT+0100 (CET)","2021","2","10","17","53","48","tx12","20","female","right","75","36","46","10","2","","","","","fixation","","","",""
"547","img/image_stim_f.png","70","image-keyboard-response","34","140011","0.0-9.0-1.12","ms7rgz","Wed Feb 10 2021 17:53:48 GMT+0100 (CET)","2021","2","10","17","53","48","tx12","20","female","right","75","36","46","10","2","","","","","test","fear","fear","f","true"
"null","<div style=""font-size:60px;"">+</div>","null","html-keyboard-response","35","140267","0.0-9.0-0.13","ms7rgz","Wed Feb 10 2021 17:53:48 GMT+0100 (CET)","2021","2","10","17","53","48","tx12","20","female","right","75","36","46","10","2","","","","","fixation","","","",""
"653","img/image_stim_f_stroop.png","70","image-keyboard-response","36","140923","0.0-9.0-1.13","ms7rgz","Wed Feb 10 2021 17:53:48 GMT+0100 (CET)","2021","2","10","17","53","48","tx12","20","female","right","75","36","46","10","2","","","","","test","fear","happy","f","true"
"null","<div style=""font-size:60px;"">+</div>","null","html-keyboard-response","37","142931","0.0-9.0-0.14","ms7rgz","Wed Feb 10 2021 17:53:48 GMT+0100 (CET)","2021","2","10","17","53","48","tx12","20","female","right","75","36","46","10","2","","","","","fixation","","","",""
"772","img/image_stim_h.png","72","image-keyboard-response","38","143706","0.0-9.0-1.14","ms7rgz","Wed Feb 10 2021 17:53:48 GMT+0100 (CET)","2021","2","10","17","53","48","tx12","20","female","right","75","36","46","10","2","","","","","test","happy","happy","h","true"
"null","<div style=""font-size:60px;"">+</div>","null","html-keyboard-response","39","144963","0.0-9.0-0.15","ms7rgz","Wed Feb 10 2021 17:53:48 GMT+0100 (CET)","2021","2","10","17","53","48","tx12","20","female","right","75","36","46","10","2","","","","","fixation","","","",""
"802","img/image_stim_h_stroop.png","72","image-keyboard-response","40","145769","0.0-9.0-1.15","ms7rgz","Wed Feb 10 2021 17:53:48 GMT+0100 (CET)","2021","2","10","17","53","48","tx12","20","female","right","75","36","46","10","2","","","","","test","happy","fear","h","true"
"null","<div style=""font-size:60px;"">+</div>","null","html-keyboard-response","41","146526","0.0-9.0-0.16","ms7rgz","Wed Feb 10 2021 17:53:48 GMT+0100 (CET)","2021","2","10","17","53","48","tx12","20","female","right","75","36","46","10","2","","","","","fixation","","","",""
"582","img/image_stim_h.png","72","image-keyboard-response","42","147112","0.0-9.0-1.16","ms7rgz","Wed Feb 10 2021 17:53:48 GMT+0100 (CET)","2021","2","10","17","53","48","tx12","20","female","right","75","36","46","10","2","","","","","test","happy","happy","h","true"
"null","<div style=""font-size:60px;"">+</div>","null","html-keyboard-response","43","148120","0.0-9.0-0.17","ms7rgz","Wed Feb 10 2021 17:53:48 GMT+0100 (CET)","2021","2","10","17","53","48","tx12","20","female","right","75","36","46","10","2","","","","","fixation","","","",""
"670.9999999999709","img/image_stim_h_stroop.png","72","image-keyboard-response","44","148794","0.0-9.0-1.17","ms7rgz","Wed Feb 10 2021 17:53:48 GMT+0100 (CET)","2021","2","10","17","53","48","tx12","20","female","right","75","36","46","10","2","","","","","test","happy","fear","h","true"
"null","<div style=""font-size:60px;"">+</div>","null","html-keyboard-response","45","150301","0.0-9.0-0.18","ms7rgz","Wed Feb 10 2021 17:53:48 GMT+0100 (CET)","2021","2","10","17","53","48","tx12","20","female","right","75","36","46","10","2","","","","","fixation","","","",""
"720","img/image_stim_f_stroop.png","70","image-keyboard-response","46","151025","0.0-9.0-1.18","ms7rgz","Wed Feb 10 2021 17:53:48 GMT+0100 (CET)","2021","2","10","17","53","48","tx12","20","female","right","75","36","46","10","2","","","","","test","fear","happy","f","true"
"null","<div style=""font-size:60px;"">+</div>","null","html-keyboard-response","47","151534","0.0-9.0-0.19","ms7rgz","Wed Feb 10 2021 17:53:48 GMT+0100 (CET)","2021","2","10","17","53","48","tx12","20","female","right","75","36","46","10","2","","","","","fixation","","","",""
"424","img/image_stim_f.png","70","image-keyboard-response","48","151961","0.0-9.0-1.19","ms7rgz","Wed Feb 10 2021 17:53:48 GMT+0100 (CET)","2021","2","10","17","53","48","tx12","20","female","right","75","36","46","10","2","","","","","test","fear","fear","f","true"
"null","<div style=""font-size:60px;"">+</div>","null","html-keyboard-response","49","153470","0.0-9.0-0.20","ms7rgz","Wed Feb 10 2021 17:53:48 GMT+0100 (CET)","2021","2","10","17","53","48","tx12","20","female","right","75","36","46","10","2","","","","","fixation","","","",""
"581","img/image_stim_f_stroop.png","70","image-keyboard-response","50","154054","0.0-9.0-1.20","ms7rgz","Wed Feb 10 2021 17:53:48 GMT+0100 (CET)","2021","2","10","17","53","48","tx12","20","female","right","75","36","46","10","2","","","","","test","fear","happy","f","true"
"null","<div style=""font-size:60px;"">+</div>","null","html-keyboard-response","51","155562","0.0-9.0-0.21","ms7rgz","Wed Feb 10 2021 17:53:48 GMT+0100 (CET)","2021","2","10","17","53","48","tx12","20","female","right","75","36","46","10","2","","","","","fixation","","","",""
"599.0000000000291","img/image_stim_f.png","70","image-keyboard-response","52","156165","0.0-9.0-1.21","ms7rgz","Wed Feb 10 2021 17:53:48 GMT+0100 (CET)","2021","2","10","17","53","48","tx12","20","female","right","75","36","46","10","2","","","","","test","fear","fear","f","true"
"null","<div style=""font-size:60px;"">+</div>","null","html-keyboard-response","53","157923","0.0-9.0-0.22","ms7rgz","Wed Feb 10 2021 17:53:48 GMT+0100 (CET)","2021","2","10","17","53","48","tx12","20","female","right","75","36","46","10","2","","","","","fixation","","","",""
"625","img/image_stim_h.png","72","image-keyboard-response","54","158552","0.0-9.0-1.22","ms7rgz","Wed Feb 10 2021 17:53:48 GMT+0100 (CET)","2021","2","10","17","53","48","tx12","20","female","right","75","36","46","10","2","","","","","test","happy","happy","h","true"
"null","<div style=""font-size:60px;"">+</div>","null","html-keyboard-response","55","159561","0.0-9.0-0.23","ms7rgz","Wed Feb 10 2021 17:53:48 GMT+0100 (CET)","2021","2","10","17","53","48","tx12","20","female","right","75","36","46","10","2","","","","","fixation","","","",""
"425","img/image_stim_h_stroop.png","72","image-keyboard-response","56","159989","0.0-9.0-1.23","ms7rgz","Wed Feb 10 2021 17:53:48 GMT+0100 (CET)","2021","2","10","17","53","48","tx12","20","female","right","75","36","46","10","2","","","","","test","happy","fear","h","true"
"null","<div style=""font-size:60px;"">+</div>","null","html-keyboard-response","57","161247","0.0-9.0-0.24","ms7rgz","Wed Feb 10 2021 17:53:48 GMT+0100 (CET)","2021","2","10","17","53","48","tx12","20","female","right","75","36","46","10","2","","","","","fixation","","","",""
"690","img/image_stim_f_stroop.png","70","image-keyboard-response","58","161941","0.0-9.0-1.24","ms7rgz","Wed Feb 10 2021 17:53:48 GMT+0100 (CET)","2021","2","10","17","53","48","tx12","20","female","right","75","36","46","10","2","","","","","test","fear","happy","f","true"
"null","<div style=""font-size:60px;"">+</div>","null","html-keyboard-response","59","163947","0.0-9.0-0.25","ms7rgz","Wed Feb 10 2021 17:53:48 GMT+0100 (CET)","2021","2","10","17","53","48","tx12","20","female","right","75","36","46","10","2","","","","","fixation","","","",""
"733","img/image_stim_h.png","72","image-keyboard-response","60","164683","0.0-9.0-1.25","ms7rgz","Wed Feb 10 2021 17:53:48 GMT+0100 (CET)","2021","2","10","17","53","48","tx12","20","female","right","75","36","46","10","2","","","","","test","happy","happy","h","true"
"null","<div style=""font-size:60px;"">+</div>","null","html-keyboard-response","61","166444","0.0-9.0-0.26","ms7rgz","Wed Feb 10 2021 17:53:48 GMT+0100 (CET)","2021","2","10","17","53","48","tx12","20","female","right","75","36","46","10","2","","","","","fixation","","","",""
"692","img/image_stim_f.png","70","image-keyboard-response","62","167143","0.0-9.0-1.26","ms7rgz","Wed Feb 10 2021 17:53:48 GMT+0100 (CET)","2021","2","10","17","53","48","tx12","20","female","right","75","36","46","10","2","","","","","test","fear","fear","f","true"
"null","<div style=""font-size:60px;"">+</div>","null","html-keyboard-response","63","167398","0.0-9.0-0.27","ms7rgz","Wed Feb 10 2021 17:53:48 GMT+0100 (CET)","2021","2","10","17","53","48","tx12","20","female","right","75","36","46","10","2","","","","","fixation","","","",""
"990","img/image_stim_h_stroop.png","72","image-keyboard-response","64","168392","0.0-9.0-1.27","ms7rgz","Wed Feb 10 2021 17:53:48 GMT+0100 (CET)","2021","2","10","17","53","48","tx12","20","female","right","75","36","46","10","2","","","","","test","happy","fear","h","true"
"null","<div style=""font-size:60px;"">+</div>","null","html-keyboard-response","65","169398","0.0-9.0-0.28","ms7rgz","Wed Feb 10 2021 17:53:48 GMT+0100 (CET)","2021","2","10","17","53","48","tx12","20","female","right","75","36","46","10","2","","","","","fixation","","","",""
"505","img/image_stim_h_stroop.png","72","image-keyboard-response","66","169906","0.0-9.0-1.28","ms7rgz","Wed Feb 10 2021 17:53:48 GMT+0100 (CET)","2021","2","10","17","53","48","tx12","20","female","right","75","36","46","10","2","","","","","test","happy","fear","h","true"
"null","<div style=""font-size:60px;"">+</div>","null","html-keyboard-response","67","171911","0.0-9.0-0.29","ms7rgz","Wed Feb 10 2021 17:53:48 GMT+0100 (CET)","2021","2","10","17","53","48","tx12","20","female","right","75","36","46","10","2","","","","","fixation","","","",""
"768.9999999999709","img/image_stim_f_stroop.png","70","image-keyboard-response","68","172685","0.0-9.0-1.29","ms7rgz","Wed Feb 10 2021 17:53:48 GMT+0100 (CET)","2021","2","10","17","53","48","tx12","20","female","right","75","36","46","10","2","","","","","test","fear","happy","f","true"
"null","<div style=""font-size:60px;"">+</div>","null","html-keyboard-response","69","173441","0.0-9.0-0.30","ms7rgz","Wed Feb 10 2021 17:53:48 GMT+0100 (CET)","2021","2","10","17","53","48","tx12","20","female","right","75","36","46","10","2","","","","","fixation","","","",""
"541","img/image_stim_f.png","70","image-keyboard-response","70","173985","0.0-9.0-1.30","ms7rgz","Wed Feb 10 2021 17:53:48 GMT+0100 (CET)","2021","2","10","17","53","48","tx12","20","female","right","75","36","46","10","2","","","","","test","fear","fear","f","true"
"null","<div style=""font-size:60px;"">+</div>","null","html-keyboard-response","71","175241","0.0-9.0-0.31","ms7rgz","Wed Feb 10 2021 17:53:48 GMT+0100 (CET)","2021","2","10","17","53","48","tx12","20","female","right","75","36","46","10","2","","","","","fixation","","","",""
"600","img/image_stim_h.png","72","image-keyboard-response","72","175844","0.0-9.0-1.31","ms7rgz","Wed Feb 10 2021 17:53:48 GMT+0100 (CET)","2021","2","10","17","53","48","tx12","20","female","right","75","36","46","10","2","","","","","test","happy","happy","h","true"
"null","<div style=""font-size:60px;"">+</div>","null","html-keyboard-response","73","177849","0.0-9.0-0.32","ms7rgz","Wed Feb 10 2021 17:53:48 GMT+0100 (CET)","2021","2","10","17","53","48","tx12","20","female","right","75","36","46","10","2","","","","","fixation","","","",""
"1148","img/image_stim_h.png","72","image-keyboard-response","74","179001","0.0-9.0-1.32","ms7rgz","Wed Feb 10 2021 17:53:48 GMT+0100 (CET)","2021","2","10","17","53","48","tx12","20","female","right","75","36","46","10","2","","","","","test","happy","happy","h","true"
"null","<div style=""font-size:60px;"">+</div>","null","html-keyboard-response","75","181008","0.0-9.0-0.33","ms7rgz","Wed Feb 10 2021 17:53:48 GMT+0100 (CET)","2021","2","10","17","53","48","tx12","20","female","right","75","36","46","10","2","","","","","fixation","","","",""
"650","img/image_stim_f_stroop.png","70","image-keyboard-response","76","181661","0.0-9.0-1.33","ms7rgz","Wed Feb 10 2021 17:53:48 GMT+0100 (CET)","2021","2","10","17","53","48","tx12","20","female","right","75","36","46","10","2","","","","","test","fear","happy","f","true"
"null","<div style=""font-size:60px;"">+</div>","null","html-keyboard-response","77","182917","0.0-9.0-0.34","ms7rgz","Wed Feb 10 2021 17:53:48 GMT+0100 (CET)","2021","2","10","17","53","48","tx12","20","female","right","75","36","46","10","2","","","","","fixation","","","",""
"836","img/image_stim_h_stroop.png","72","image-keyboard-response","78","183756","0.0-9.0-1.34","ms7rgz","Wed Feb 10 2021 17:53:48 GMT+0100 (CET)","2021","2","10","17","53","48","tx12","20","female","right","75","36","46","10","2","","","","","test","happy","fear","h","true"
"null","<div style=""font-size:60px;"">+</div>","null","html-keyboard-response","79","185262","0.0-9.0-0.35","ms7rgz","Wed Feb 10 2021 17:53:48 GMT+0100 (CET)","2021","2","10","17","53","48","tx12","20","female","right","75","36","46","10","2","","","","","fixation","","","",""
"614","img/image_stim_f.png","70","image-keyboard-response","80","185878","0.0-9.0-1.35","ms7rgz","Wed Feb 10 2021 17:53:48 GMT+0100 (CET)","2021","2","10","17","53","48","tx12","20","female","right","75","36","46","10","2","","","","","test","fear","fear","f","true"
