"rt","stimulus","key_press","trial_type","trial_index","time_elapsed","internal_node_id","exp_id","Time","year","month","date","hour","minute","seconds","id","age","Gender","Handedness","mood","fresh","hunger","H_since_Sleep","H_since_Eat","responses","question_order","slider_start","response","test_part","face","word","correct_response","correct"
"36641","<p>Welcome to this experiment on daily rhythms and cognition.</p><p>First you will be asked some questions about yourself.</p><p>Then a short experiment will measure your response time.</p><p>Take the test at different times of the day/night.</p><p>The test is anonymous, but comparing your data across time is important.</p><p>Therefore, please make up and remember a personal ID (two letters+ two numbers).</p><p>Use this ID whenever taking the test.</p><p><strong>Press any key to begin.</strong></p>","32","html-keyboard-response","0","36652","0.0-0.0","p40gqx","Mon Feb 15 2021 22:43:26 GMT+0100 (CET)","2021","2","15","22","43","26","AM07","31","female","right","90","17","17","14","4","","","","","","","","",""
"26096","","","survey-text","1","62930","0.0-1.0","p40gqx","Mon Feb 15 2021 22:43:26 GMT+0100 (CET)","2021","2","15","22","43","26","AM07","31","female","right","90","17","17","14","4","{""Q0"":""AM07""}","","","","","","","",""
"3362","","","survey-text","2","66302","0.0-2.0","p40gqx","Mon Feb 15 2021 22:43:26 GMT+0100 (CET)","2021","2","15","22","43","26","AM07","31","female","right","90","17","17","14","4","{""Q0"":""31""}","","","","","","","",""
"5042.000000000015","","","survey-multi-select","3","71369","0.0-3.0","p40gqx","Mon Feb 15 2021 22:43:26 GMT+0100 (CET)","2021","2","15","22","43","26","AM07","31","female","right","90","17","17","14","4","{""Gender"":[""female""],""Hand"":[""right""]}","[0,1]","","","","","","",""
"5839.999999999985","<p>How Sad/Angry or Happy are you right now?</p>","","html-slider-response","4","77222","0.0-4.0","p40gqx","Mon Feb 15 2021 22:43:26 GMT+0100 (CET)","2021","2","15","22","43","26","AM07","31","female","right","90","17","17","14","4","","","50","90","","","","",""
"7459","<p>How Tired/Sleepy/Distracted or Fresh/Awake/Alert are you right now?</p>","","html-slider-response","5","84682","0.0-5.0","p40gqx","Mon Feb 15 2021 22:43:26 GMT+0100 (CET)","2021","2","15","22","43","26","AM07","31","female","right","90","17","17","14","4","","","50","17","","","","",""
"3550","<p>How Hungry or Satiated are you right now?</p>","","html-slider-response","6","88234","0.0-6.0","p40gqx","Mon Feb 15 2021 22:43:26 GMT+0100 (CET)","2021","2","15","22","43","26","AM07","31","female","right","90","17","17","14","4","","","50","17","","","","",""
"23502","","","survey-multi-select","7","111759","0.0-7.0","p40gqx","Mon Feb 15 2021 22:43:26 GMT+0100 (CET)","2021","2","15","22","43","26","AM07","31","female","right","90","17","17","14","4","{""Sleep"":[""14""],""Eat"":[""4""]}","[0,1]","","","","","","",""
"32765.999999999985","<p>In this experiment, a face and a word will appear in the center of the screen.</p><p>If the face is <strong>happy</strong>, press the letter <strong>H</strong> with <strong>right</strong> index finger.</p><p>If the face is <strong>fearful</strong>, press the letter <strong>F</strong> with <strong>left</strong> index finger.</p><p><strong>Ignore the written words</strong>. Respond as fast as possible while being correct. </p><div style='width: 900px;'><div style='float: left;'><img src='img/stimuli_stroop_happy.png'></img><p class='small'><strong>Press the H key for happy faces</strong></p></div><div class='float: right;'><img src='img/stimuli_stroop_fear.png'></img><p class='small'><strong>Press the F key for faces with fear</strong></p></div></div><p>If the screen turns blank, press <strong>SPACE</strong></p><p><strong>Press any key to begin.</strong></p>","72","html-keyboard-response","8","144530","0.0-8.0","p40gqx","Mon Feb 15 2021 22:43:26 GMT+0100 (CET)","2021","2","15","22","43","26","AM07","31","female","right","90","17","17","14","4","","","","","","","","",""
"null","<div style=""font-size:60px;"">+</div>","null","html-keyboard-response","9","148297","0.0-9.0-0.0","p40gqx","Mon Feb 15 2021 22:43:26 GMT+0100 (CET)","2021","2","15","22","43","26","AM07","31","female","right","90","17","17","14","4","","","","","fixation","","","",""
"982","img/image_stim_f_stroop.png","70","image-keyboard-response","10","149307","0.0-9.0-1.0","p40gqx","Mon Feb 15 2021 22:43:26 GMT+0100 (CET)","2021","2","15","22","43","26","AM07","31","female","right","90","17","17","14","4","","","","","test","fear","happy","f","true"
"null","<div style=""font-size:60px;"">+</div>","null","html-keyboard-response","11","149831","0.0-9.0-0.1","p40gqx","Mon Feb 15 2021 22:43:26 GMT+0100 (CET)","2021","2","15","22","43","26","AM07","31","female","right","90","17","17","14","4","","","","","fixation","","","",""
"783.0000000000291","img/image_stim_h_stroop.png","72","image-keyboard-response","12","150622","0.0-9.0-1.1","p40gqx","Mon Feb 15 2021 22:43:26 GMT+0100 (CET)","2021","2","15","22","43","26","AM07","31","female","right","90","17","17","14","4","","","","","test","happy","fear","h","true"
"null","<div style=""font-size:60px;"">+</div>","null","html-keyboard-response","13","151378","0.0-9.0-0.2","p40gqx","Mon Feb 15 2021 22:43:26 GMT+0100 (CET)","2021","2","15","22","43","26","AM07","31","female","right","90","17","17","14","4","","","","","fixation","","","",""
"696","img/image_stim_h.png","72","image-keyboard-response","14","152082","0.0-9.0-1.2","p40gqx","Mon Feb 15 2021 22:43:26 GMT+0100 (CET)","2021","2","15","22","43","26","AM07","31","female","right","90","17","17","14","4","","","","","test","happy","happy","h","true"
"null","<div style=""font-size:60px;"">+</div>","null","html-keyboard-response","15","153836","0.0-9.0-0.3","p40gqx","Mon Feb 15 2021 22:43:26 GMT+0100 (CET)","2021","2","15","22","43","26","AM07","31","female","right","90","17","17","14","4","","","","","fixation","","","",""
"733","img/image_stim_f.png","70","image-keyboard-response","16","154577","0.0-9.0-1.3","p40gqx","Mon Feb 15 2021 22:43:26 GMT+0100 (CET)","2021","2","15","22","43","26","AM07","31","female","right","90","17","17","14","4","","","","","test","fear","fear","f","true"
"null","<div style=""font-size:60px;"">+</div>","null","html-keyboard-response","17","155331","0.0-9.0-0.4","p40gqx","Mon Feb 15 2021 22:43:26 GMT+0100 (CET)","2021","2","15","22","43","26","AM07","31","female","right","90","17","17","14","4","","","","","fixation","","","",""
"594","img/image_stim_f_stroop.png","70","image-keyboard-response","18","155931","0.0-9.0-1.4","p40gqx","Mon Feb 15 2021 22:43:26 GMT+0100 (CET)","2021","2","15","22","43","26","AM07","31","female","right","90","17","17","14","4","","","","","test","fear","happy","f","true"
"null","<div style=""font-size:60px;"">+</div>","null","html-keyboard-response","19","156684","0.0-9.0-0.5","p40gqx","Mon Feb 15 2021 22:43:26 GMT+0100 (CET)","2021","2","15","22","43","26","AM07","31","female","right","90","17","17","14","4","","","","","fixation","","","",""
"649","img/image_stim_h.png","72","image-keyboard-response","20","157338","0.0-9.0-1.5","p40gqx","Mon Feb 15 2021 22:43:26 GMT+0100 (CET)","2021","2","15","22","43","26","AM07","31","female","right","90","17","17","14","4","","","","","test","happy","happy","h","true"
"null","<div style=""font-size:60px;"">+</div>","null","html-keyboard-response","21","158844","0.0-9.0-0.6","p40gqx","Mon Feb 15 2021 22:43:26 GMT+0100 (CET)","2021","2","15","22","43","26","AM07","31","female","right","90","17","17","14","4","","","","","fixation","","","",""
"529.0000000000291","img/image_stim_f.png","70","image-keyboard-response","22","159377","0.0-9.0-1.6","p40gqx","Mon Feb 15 2021 22:43:26 GMT+0100 (CET)","2021","2","15","22","43","26","AM07","31","female","right","90","17","17","14","4","","","","","test","fear","fear","f","true"
"null","<div style=""font-size:60px;"">+</div>","null","html-keyboard-response","23","161132","0.0-9.0-0.7","p40gqx","Mon Feb 15 2021 22:43:26 GMT+0100 (CET)","2021","2","15","22","43","26","AM07","31","female","right","90","17","17","14","4","","","","","fixation","","","",""
"516","img/image_stim_h_stroop.png","72","image-keyboard-response","24","161652","0.0-9.0-1.7","p40gqx","Mon Feb 15 2021 22:43:26 GMT+0100 (CET)","2021","2","15","22","43","26","AM07","31","female","right","90","17","17","14","4","","","","","test","happy","fear","h","true"
"null","<div style=""font-size:60px;"">+</div>","null","html-keyboard-response","25","162156","0.0-9.0-0.8","p40gqx","Mon Feb 15 2021 22:43:26 GMT+0100 (CET)","2021","2","15","22","43","26","AM07","31","female","right","90","17","17","14","4","","","","","fixation","","","",""
"574","img/image_stim_f.png","70","image-keyboard-response","26","162735","0.0-9.0-1.8","p40gqx","Mon Feb 15 2021 22:43:26 GMT+0100 (CET)","2021","2","15","22","43","26","AM07","31","female","right","90","17","17","14","4","","","","","test","fear","fear","f","true"
"null","<div style=""font-size:60px;"">+</div>","null","html-keyboard-response","27","163239","0.0-9.0-0.9","p40gqx","Mon Feb 15 2021 22:43:26 GMT+0100 (CET)","2021","2","15","22","43","26","AM07","31","female","right","90","17","17","14","4","","","","","fixation","","","",""
"598","img/image_stim_h_stroop.png","72","image-keyboard-response","28","163842","0.0-9.0-1.9","p40gqx","Mon Feb 15 2021 22:43:26 GMT+0100 (CET)","2021","2","15","22","43","26","AM07","31","female","right","90","17","17","14","4","","","","","test","happy","fear","h","true"
"null","<div style=""font-size:60px;"">+</div>","null","html-keyboard-response","29","164596","0.0-9.0-0.10","p40gqx","Mon Feb 15 2021 22:43:26 GMT+0100 (CET)","2021","2","15","22","43","26","AM07","31","female","right","90","17","17","14","4","","","","","fixation","","","",""
"631","img/image_stim_f_stroop.png","70","image-keyboard-response","30","165232","0.0-9.0-1.10","p40gqx","Mon Feb 15 2021 22:43:26 GMT+0100 (CET)","2021","2","15","22","43","26","AM07","31","female","right","90","17","17","14","4","","","","","test","fear","happy","f","true"
"null","<div style=""font-size:60px;"">+</div>","null","html-keyboard-response","31","166489","0.0-9.0-0.11","p40gqx","Mon Feb 15 2021 22:43:26 GMT+0100 (CET)","2021","2","15","22","43","26","AM07","31","female","right","90","17","17","14","4","","","","","fixation","","","",""
"606","img/image_stim_h.png","72","image-keyboard-response","32","167100","0.0-9.0-1.11","p40gqx","Mon Feb 15 2021 22:43:26 GMT+0100 (CET)","2021","2","15","22","43","26","AM07","31","female","right","90","17","17","14","4","","","","","test","happy","happy","h","true"
"null","<div style=""font-size:60px;"">+</div>","null","html-keyboard-response","33","168856","0.0-9.0-0.12","p40gqx","Mon Feb 15 2021 22:43:26 GMT+0100 (CET)","2021","2","15","22","43","26","AM07","31","female","right","90","17","17","14","4","","","","","fixation","","","",""
"530","img/image_stim_h.png","72","image-keyboard-response","34","169391","0.0-9.0-1.12","p40gqx","Mon Feb 15 2021 22:43:26 GMT+0100 (CET)","2021","2","15","22","43","26","AM07","31","female","right","90","17","17","14","4","","","","","test","happy","happy","h","true"
"null","<div style=""font-size:60px;"">+</div>","null","html-keyboard-response","35","169646","0.0-9.0-0.13","p40gqx","Mon Feb 15 2021 22:43:26 GMT+0100 (CET)","2021","2","15","22","43","26","AM07","31","female","right","90","17","17","14","4","","","","","fixation","","","",""
"639","img/image_stim_f.png","70","image-keyboard-response","36","170289","0.0-9.0-1.13","p40gqx","Mon Feb 15 2021 22:43:26 GMT+0100 (CET)","2021","2","15","22","43","26","AM07","31","female","right","90","17","17","14","4","","","","","test","fear","fear","f","true"
"null","<div style=""font-size:60px;"">+</div>","null","html-keyboard-response","37","170547","0.0-9.0-0.14","p40gqx","Mon Feb 15 2021 22:43:26 GMT+0100 (CET)","2021","2","15","22","43","26","AM07","31","female","right","90","17","17","14","4","","","","","fixation","","","",""
"576.0000000000291","img/image_stim_h_stroop.png","72","image-keyboard-response","38","171128","0.0-9.0-1.14","p40gqx","Mon Feb 15 2021 22:43:26 GMT+0100 (CET)","2021","2","15","22","43","26","AM07","31","female","right","90","17","17","14","4","","","","","test","happy","fear","h","true"
"null","<div style=""font-size:60px;"">+</div>","null","html-keyboard-response","39","171885","0.0-9.0-0.15","p40gqx","Mon Feb 15 2021 22:43:26 GMT+0100 (CET)","2021","2","15","22","43","26","AM07","31","female","right","90","17","17","14","4","","","","","fixation","","","",""
"553","img/image_stim_f_stroop.png","70","image-keyboard-response","40","172441","0.0-9.0-1.15","p40gqx","Mon Feb 15 2021 22:43:26 GMT+0100 (CET)","2021","2","15","22","43","26","AM07","31","female","right","90","17","17","14","4","","","","","test","fear","happy","f","true"
"null","<div style=""font-size:60px;"">+</div>","null","html-keyboard-response","41","172698","0.0-9.0-0.16","p40gqx","Mon Feb 15 2021 22:43:26 GMT+0100 (CET)","2021","2","15","22","43","26","AM07","31","female","right","90","17","17","14","4","","","","","fixation","","","",""
"487","img/image_stim_h.png","72","image-keyboard-response","42","173188","0.0-9.0-1.16","p40gqx","Mon Feb 15 2021 22:43:26 GMT+0100 (CET)","2021","2","15","22","43","26","AM07","31","female","right","90","17","17","14","4","","","","","test","happy","happy","h","true"
"null","<div style=""font-size:60px;"">+</div>","null","html-keyboard-response","43","174195","0.0-9.0-0.17","p40gqx","Mon Feb 15 2021 22:43:26 GMT+0100 (CET)","2021","2","15","22","43","26","AM07","31","female","right","90","17","17","14","4","","","","","fixation","","","",""
"514.9999999999709","img/image_stim_f.png","70","image-keyboard-response","44","174713","0.0-9.0-1.17","p40gqx","Mon Feb 15 2021 22:43:26 GMT+0100 (CET)","2021","2","15","22","43","26","AM07","31","female","right","90","17","17","14","4","","","","","test","fear","fear","f","true"
"null","<div style=""font-size:60px;"">+</div>","null","html-keyboard-response","45","175721","0.0-9.0-0.18","p40gqx","Mon Feb 15 2021 22:43:26 GMT+0100 (CET)","2021","2","15","22","43","26","AM07","31","female","right","90","17","17","14","4","","","","","fixation","","","",""
"568","img/image_stim_h_stroop.png","72","image-keyboard-response","46","176292","0.0-9.0-1.18","p40gqx","Mon Feb 15 2021 22:43:26 GMT+0100 (CET)","2021","2","15","22","43","26","AM07","31","female","right","90","17","17","14","4","","","","","test","happy","fear","h","true"
"null","<div style=""font-size:60px;"">+</div>","null","html-keyboard-response","47","177799","0.0-9.0-0.19","p40gqx","Mon Feb 15 2021 22:43:26 GMT+0100 (CET)","2021","2","15","22","43","26","AM07","31","female","right","90","17","17","14","4","","","","","fixation","","","",""
"601","img/image_stim_f_stroop.png","70","image-keyboard-response","48","178402","0.0-9.0-1.19","p40gqx","Mon Feb 15 2021 22:43:26 GMT+0100 (CET)","2021","2","15","22","43","26","AM07","31","female","right","90","17","17","14","4","","","","","test","fear","happy","f","true"
"null","<div style=""font-size:60px;"">+</div>","null","html-keyboard-response","49","178910","0.0-9.0-0.20","p40gqx","Mon Feb 15 2021 22:43:26 GMT+0100 (CET)","2021","2","15","22","43","26","AM07","31","female","right","90","17","17","14","4","","","","","fixation","","","",""
"843","img/image_stim_h_stroop.png","72","image-keyboard-response","50","179755","0.0-9.0-1.20","p40gqx","Mon Feb 15 2021 22:43:26 GMT+0100 (CET)","2021","2","15","22","43","26","AM07","31","female","right","90","17","17","14","4","","","","","test","happy","fear","h","true"
"null","<div style=""font-size:60px;"">+</div>","null","html-keyboard-response","51","180513","0.0-9.0-0.21","p40gqx","Mon Feb 15 2021 22:43:26 GMT+0100 (CET)","2021","2","15","22","43","26","AM07","31","female","right","90","17","17","14","4","","","","","fixation","","","",""
"554","img/image_stim_f.png","70","image-keyboard-response","52","181070","0.0-9.0-1.21","p40gqx","Mon Feb 15 2021 22:43:26 GMT+0100 (CET)","2021","2","15","22","43","26","AM07","31","female","right","90","17","17","14","4","","","","","test","fear","fear","f","true"
"null","<div style=""font-size:60px;"">+</div>","null","html-keyboard-response","53","182578","0.0-9.0-0.22","p40gqx","Mon Feb 15 2021 22:43:26 GMT+0100 (CET)","2021","2","15","22","43","26","AM07","31","female","right","90","17","17","14","4","","","","","fixation","","","",""
"459","img/image_stim_h.png","72","image-keyboard-response","54","183041","0.0-9.0-1.22","p40gqx","Mon Feb 15 2021 22:43:26 GMT+0100 (CET)","2021","2","15","22","43","26","AM07","31","female","right","90","17","17","14","4","","","","","test","happy","happy","h","true"
"null","<div style=""font-size:60px;"">+</div>","null","html-keyboard-response","55","183800","0.0-9.0-0.23","p40gqx","Mon Feb 15 2021 22:43:26 GMT+0100 (CET)","2021","2","15","22","43","26","AM07","31","female","right","90","17","17","14","4","","","","","fixation","","","",""
"610","img/image_stim_f_stroop.png","70","image-keyboard-response","56","184413","0.0-9.0-1.23","p40gqx","Mon Feb 15 2021 22:43:26 GMT+0100 (CET)","2021","2","15","22","43","26","AM07","31","female","right","90","17","17","14","4","","","","","test","fear","happy","f","true"
"null","<div style=""font-size:60px;"">+</div>","null","html-keyboard-response","57","184924","0.0-9.0-0.24","p40gqx","Mon Feb 15 2021 22:43:26 GMT+0100 (CET)","2021","2","15","22","43","26","AM07","31","female","right","90","17","17","14","4","","","","","fixation","","","",""
"712.0000000000291","img/image_stim_f.png","70","image-keyboard-response","58","185639","0.0-9.0-1.24","p40gqx","Mon Feb 15 2021 22:43:26 GMT+0100 (CET)","2021","2","15","22","43","26","AM07","31","female","right","90","17","17","14","4","","","","","test","fear","fear","f","true"
"null","<div style=""font-size:60px;"">+</div>","null","html-keyboard-response","59","186397","0.0-9.0-0.25","p40gqx","Mon Feb 15 2021 22:43:26 GMT+0100 (CET)","2021","2","15","22","43","26","AM07","31","female","right","90","17","17","14","4","","","","","fixation","","","",""
"526","img/image_stim_h_stroop.png","72","image-keyboard-response","60","186926","0.0-9.0-1.25","p40gqx","Mon Feb 15 2021 22:43:26 GMT+0100 (CET)","2021","2","15","22","43","26","AM07","31","female","right","90","17","17","14","4","","","","","test","happy","fear","h","true"
"null","<div style=""font-size:60px;"">+</div>","null","html-keyboard-response","61","187430","0.0-9.0-0.26","p40gqx","Mon Feb 15 2021 22:43:26 GMT+0100 (CET)","2021","2","15","22","43","26","AM07","31","female","right","90","17","17","14","4","","","","","fixation","","","",""
"734","img/image_stim_f_stroop.png","70","image-keyboard-response","62","188167","0.0-9.0-1.26","p40gqx","Mon Feb 15 2021 22:43:26 GMT+0100 (CET)","2021","2","15","22","43","26","AM07","31","female","right","90","17","17","14","4","","","","","test","fear","happy","f","true"
"null","<div style=""font-size:60px;"">+</div>","null","html-keyboard-response","63","189422","0.0-9.0-0.27","p40gqx","Mon Feb 15 2021 22:43:26 GMT+0100 (CET)","2021","2","15","22","43","26","AM07","31","female","right","90","17","17","14","4","","","","","fixation","","","",""
"518","img/image_stim_h.png","72","image-keyboard-response","64","189944","0.0-9.0-1.27","p40gqx","Mon Feb 15 2021 22:43:26 GMT+0100 (CET)","2021","2","15","22","43","26","AM07","31","female","right","90","17","17","14","4","","","","","test","happy","happy","h","true"
"null","<div style=""font-size:60px;"">+</div>","null","html-keyboard-response","65","191950","0.0-9.0-0.28","p40gqx","Mon Feb 15 2021 22:43:26 GMT+0100 (CET)","2021","2","15","22","43","26","AM07","31","female","right","90","17","17","14","4","","","","","fixation","","","",""
"564.9999999999709","img/image_stim_f_stroop.png","70","image-keyboard-response","66","192518","0.0-9.0-1.28","p40gqx","Mon Feb 15 2021 22:43:26 GMT+0100 (CET)","2021","2","15","22","43","26","AM07","31","female","right","90","17","17","14","4","","","","","test","fear","happy","f","true"
"null","<div style=""font-size:60px;"">+</div>","null","html-keyboard-response","67","193776","0.0-9.0-0.29","p40gqx","Mon Feb 15 2021 22:43:26 GMT+0100 (CET)","2021","2","15","22","43","26","AM07","31","female","right","90","17","17","14","4","","","","","fixation","","","",""
"521","img/image_stim_h.png","72","image-keyboard-response","68","194300","0.0-9.0-1.29","p40gqx","Mon Feb 15 2021 22:43:26 GMT+0100 (CET)","2021","2","15","22","43","26","AM07","31","female","right","90","17","17","14","4","","","","","test","happy","happy","h","true"
"null","<div style=""font-size:60px;"">+</div>","null","html-keyboard-response","69","194806","0.0-9.0-0.30","p40gqx","Mon Feb 15 2021 22:43:26 GMT+0100 (CET)","2021","2","15","22","43","26","AM07","31","female","right","90","17","17","14","4","","","","","fixation","","","",""
"488","img/image_stim_f.png","70","image-keyboard-response","70","195296","0.0-9.0-1.30","p40gqx","Mon Feb 15 2021 22:43:26 GMT+0100 (CET)","2021","2","15","22","43","26","AM07","31","female","right","90","17","17","14","4","","","","","test","fear","fear","f","true"
"null","<div style=""font-size:60px;"">+</div>","null","html-keyboard-response","71","197302","0.0-9.0-0.31","p40gqx","Mon Feb 15 2021 22:43:26 GMT+0100 (CET)","2021","2","15","22","43","26","AM07","31","female","right","90","17","17","14","4","","","","","fixation","","","",""
"503","img/image_stim_h_stroop.png","72","image-keyboard-response","72","197808","0.0-9.0-1.31","p40gqx","Mon Feb 15 2021 22:43:26 GMT+0100 (CET)","2021","2","15","22","43","26","AM07","31","female","right","90","17","17","14","4","","","","","test","happy","fear","h","true"
"null","<div style=""font-size:60px;"">+</div>","null","html-keyboard-response","73","198313","0.0-9.0-0.32","p40gqx","Mon Feb 15 2021 22:43:26 GMT+0100 (CET)","2021","2","15","22","43","26","AM07","31","female","right","90","17","17","14","4","","","","","fixation","","","",""
"502","img/image_stim_h.png","72","image-keyboard-response","74","198817","0.0-9.0-1.32","p40gqx","Mon Feb 15 2021 22:43:26 GMT+0100 (CET)","2021","2","15","22","43","26","AM07","31","female","right","90","17","17","14","4","","","","","test","happy","happy","h","true"
"null","<div style=""font-size:60px;"">+</div>","null","html-keyboard-response","75","199823","0.0-9.0-0.33","p40gqx","Mon Feb 15 2021 22:43:26 GMT+0100 (CET)","2021","2","15","22","43","26","AM07","31","female","right","90","17","17","14","4","","","","","fixation","","","",""
"525","img/image_stim_h_stroop.png","70","image-keyboard-response","76","200352","0.0-9.0-1.33","p40gqx","Mon Feb 15 2021 22:43:26 GMT+0100 (CET)","2021","2","15","22","43","26","AM07","31","female","right","90","17","17","14","4","","","","","test","happy","fear","h","false"
"null","<div style=""font-size:60px;"">+</div>","null","html-keyboard-response","77","200858","0.0-9.0-0.34","p40gqx","Mon Feb 15 2021 22:43:26 GMT+0100 (CET)","2021","2","15","22","43","26","AM07","31","female","right","90","17","17","14","4","","","","","fixation","","","",""
"683","img/image_stim_f_stroop.png","70","image-keyboard-response","78","201544","0.0-9.0-1.34","p40gqx","Mon Feb 15 2021 22:43:26 GMT+0100 (CET)","2021","2","15","22","43","26","AM07","31","female","right","90","17","17","14","4","","","","","test","fear","happy","f","true"
"null","<div style=""font-size:60px;"">+</div>","null","html-keyboard-response","79","202299","0.0-9.0-0.35","p40gqx","Mon Feb 15 2021 22:43:26 GMT+0100 (CET)","2021","2","15","22","43","26","AM07","31","female","right","90","17","17","14","4","","","","","fixation","","","",""
"666","img/image_stim_f.png","70","image-keyboard-response","80","202968","0.0-9.0-1.35","p40gqx","Mon Feb 15 2021 22:43:26 GMT+0100 (CET)","2021","2","15","22","43","26","AM07","31","female","right","90","17","17","14","4","","","","","test","fear","fear","f","true"
