"rt","stimulus","key_press","trial_type","trial_index","time_elapsed","internal_node_id","exp_id","Time","year","month","date","hour","minute","seconds","id","age","Gender","Handedness","mood","fresh","hunger","H_since_Sleep","H_since_Eat","responses","question_order","slider_start","response","test_part","face","word","correct_response","correct"
"17243","<p>Welcome to this experiment on daily rhythms and cognition.</p><p>First you will be asked some questions about yourself.</p><p>Then a short experiment will measure your response time.</p><p>Take the test at different times of the day/night.</p><p>The test is anonymous, but comparing your data across time is important.</p><p>Therefore, please make up and remember a personal ID (two letters+ two numbers).</p><p>Use this ID whenever taking the test.</p><p><strong>Press any key to begin.</strong></p>","74","html-keyboard-response","0","17248","0.0-0.0","1ttd2a","Mon Feb 08 2021 10:21:34 GMT+0100 (Central European Standard Time)","2021","2","8","10","21","34","jo11","26","female","right","0","0","0","0","0","","","","","","","","",""
"7227","","","survey-text","1","24484","0.0-1.0","1ttd2a","Mon Feb 08 2021 10:21:34 GMT+0100 (Central European Standard Time)","2021","2","8","10","21","34","jo11","26","female","right","0","0","0","0","0","{""Q0"":""jo11""}","","","","","","","",""
"1988","","","survey-text","2","26475","0.0-2.0","1ttd2a","Mon Feb 08 2021 10:21:34 GMT+0100 (Central European Standard Time)","2021","2","8","10","21","34","jo11","26","female","right","0","0","0","0","0","{""Q0"":""26""}","","","","","","","",""
"3701","","","survey-multi-select","3","30181","0.0-3.0","1ttd2a","Mon Feb 08 2021 10:21:34 GMT+0100 (Central European Standard Time)","2021","2","8","10","21","34","jo11","26","female","right","0","0","0","0","0","{""Gender"":[""female""],""Hand"":[""right""]}","[0,1]","","","","","","",""
"3288","<p>How Sad/Angry or Happy are you right now?</p>","","html-slider-response","4","33473","0.0-4.0","1ttd2a","Mon Feb 08 2021 10:21:34 GMT+0100 (Central European Standard Time)","2021","2","8","10","21","34","jo11","26","female","right","0","0","0","0","0","","","50","0","","","","",""
"3544","<p>How Tired/Sleepy/Distracted or Fresh/Awake/Alert are you right now?</p>","","html-slider-response","5","37019","0.0-5.0","1ttd2a","Mon Feb 08 2021 10:21:34 GMT+0100 (Central European Standard Time)","2021","2","8","10","21","34","jo11","26","female","right","0","0","0","0","0","","","50","0","","","","",""
"1869","<p>How Hungry or Satiated are you right now?</p>","","html-slider-response","6","38890","0.0-6.0","1ttd2a","Mon Feb 08 2021 10:21:34 GMT+0100 (Central European Standard Time)","2021","2","8","10","21","34","jo11","26","female","right","0","0","0","0","0","","","50","0","","","","",""
"5822","","","survey-multi-select","7","44733","0.0-7.0","1ttd2a","Mon Feb 08 2021 10:21:34 GMT+0100 (Central European Standard Time)","2021","2","8","10","21","34","jo11","26","female","right","0","0","0","0","0","{""Sleep"":[""0""],""Eat"":[""0""]}","[0,1]","","","","","","",""
"17421","<p>In this experiment, a face and a word will appear in the center of the screen.</p><p>If the face is <strong>happy</strong>, press the letter <strong>H</strong> with <strong>right</strong> index finger.</p><p>If the face is <strong>fearful</strong>, press the letter <strong>F</strong> with <strong>left</strong> index finger.</p><p><strong>Ignore the written words</strong>. Respond as fast as possible while being correct. </p><div style='width: 900px;'><div style='float: left;'><img src='img/stimuli_stroop_happy.png'></img><p class='small'><strong>Press the H key for happy faces</strong></p></div><div class='float: right;'><img src='img/stimuli_stroop_fear.png'></img><p class='small'><strong>Press the F key for faces with fear</strong></p></div></div><p>If the screen turns blank, press <strong>SPACE</strong></p><p><strong>Press any key to begin.</strong></p>","32","html-keyboard-response","8","62156","0.0-8.0","1ttd2a","Mon Feb 08 2021 10:21:34 GMT+0100 (Central European Standard Time)","2021","2","8","10","21","34","jo11","26","female","right","0","0","0","0","0","","","","","","","","",""
"null","<div style=""font-size:60px;"">+</div>","null","html-keyboard-response","9","65909","0.0-9.0-0.0","1ttd2a","Mon Feb 08 2021 10:21:34 GMT+0100 (Central European Standard Time)","2021","2","8","10","21","34","jo11","26","female","right","0","0","0","0","0","","","","","fixation","","","",""
"null","img/image_stim_f.png","null","image-keyboard-response","10","70918","0.0-9.0-1.0","1ttd2a","Mon Feb 08 2021 10:21:34 GMT+0100 (Central European Standard Time)","2021","2","8","10","21","34","jo11","26","female","right","0","0","0","0","0","","","","","test","fear","fear","f","false"
"null","<div style=""font-size:60px;"">+</div>","null","html-keyboard-response","11","71931","0.0-9.0-0.1","1ttd2a","Mon Feb 08 2021 10:21:34 GMT+0100 (Central European Standard Time)","2021","2","8","10","21","34","jo11","26","female","right","0","0","0","0","0","","","","","fixation","","","",""
"null","img/image_stim_h_stroop.png","null","image-keyboard-response","12","76936","0.0-9.0-1.1","1ttd2a","Mon Feb 08 2021 10:21:34 GMT+0100 (Central European Standard Time)","2021","2","8","10","21","34","jo11","26","female","right","0","0","0","0","0","","","","","test","happy","fear","h","false"
"null","<div style=""font-size:60px;"">+</div>","null","html-keyboard-response","13","77696","0.0-9.0-0.2","1ttd2a","Mon Feb 08 2021 10:21:34 GMT+0100 (Central European Standard Time)","2021","2","8","10","21","34","jo11","26","female","right","0","0","0","0","0","","","","","fixation","","","",""
"1295","img/image_stim_h.png","32","image-keyboard-response","14","78995","0.0-9.0-1.2","1ttd2a","Mon Feb 08 2021 10:21:34 GMT+0100 (Central European Standard Time)","2021","2","8","10","21","34","jo11","26","female","right","0","0","0","0","0","","","","","test","happy","happy","h","false"
"null","<div style=""font-size:60px;"">+</div>","null","html-keyboard-response","15","79253","0.0-9.0-0.3","1ttd2a","Mon Feb 08 2021 10:21:34 GMT+0100 (Central European Standard Time)","2021","2","8","10","21","34","jo11","26","female","right","0","0","0","0","0","","","","","fixation","","","",""
"816","img/image_stim_f_stroop.png","32","image-keyboard-response","16","80072","0.0-9.0-1.3","1ttd2a","Mon Feb 08 2021 10:21:34 GMT+0100 (Central European Standard Time)","2021","2","8","10","21","34","jo11","26","female","right","0","0","0","0","0","","","","","test","fear","happy","f","false"
"null","<div style=""font-size:60px;"">+</div>","null","html-keyboard-response","17","81080","0.0-9.0-0.4","1ttd2a","Mon Feb 08 2021 10:21:34 GMT+0100 (Central European Standard Time)","2021","2","8","10","21","34","jo11","26","female","right","0","0","0","0","0","","","","","fixation","","","",""
"659","img/image_stim_h.png","72","image-keyboard-response","18","81748","0.0-9.0-1.4","1ttd2a","Mon Feb 08 2021 10:21:34 GMT+0100 (Central European Standard Time)","2021","2","8","10","21","34","jo11","26","female","right","0","0","0","0","0","","","","","test","happy","happy","h","true"
"null","<div style=""font-size:60px;"">+</div>","null","html-keyboard-response","19","83506","0.0-9.0-0.5","1ttd2a","Mon Feb 08 2021 10:21:34 GMT+0100 (Central European Standard Time)","2021","2","8","10","21","34","jo11","26","female","right","0","0","0","0","0","","","","","fixation","","","",""
"806","img/image_stim_f_stroop.png","72","image-keyboard-response","20","84320","0.0-9.0-1.5","1ttd2a","Mon Feb 08 2021 10:21:34 GMT+0100 (Central European Standard Time)","2021","2","8","10","21","34","jo11","26","female","right","0","0","0","0","0","","","","","test","fear","happy","f","false"
"null","<div style=""font-size:60px;"">+</div>","null","html-keyboard-response","21","84827","0.0-9.0-0.6","1ttd2a","Mon Feb 08 2021 10:21:34 GMT+0100 (Central European Standard Time)","2021","2","8","10","21","34","jo11","26","female","right","0","0","0","0","0","","","","","fixation","","","",""
"598","img/image_stim_h_stroop.png","72","image-keyboard-response","22","85431","0.0-9.0-1.6","1ttd2a","Mon Feb 08 2021 10:21:34 GMT+0100 (Central European Standard Time)","2021","2","8","10","21","34","jo11","26","female","right","0","0","0","0","0","","","","","test","happy","fear","h","true"
"null","<div style=""font-size:60px;"">+</div>","null","html-keyboard-response","23","85937","0.0-9.0-0.7","1ttd2a","Mon Feb 08 2021 10:21:34 GMT+0100 (Central European Standard Time)","2021","2","8","10","21","34","jo11","26","female","right","0","0","0","0","0","","","","","fixation","","","",""
"1176","img/image_stim_f.png","70","image-keyboard-response","24","87121","0.0-9.0-1.7","1ttd2a","Mon Feb 08 2021 10:21:34 GMT+0100 (Central European Standard Time)","2021","2","8","10","21","34","jo11","26","female","right","0","0","0","0","0","","","","","test","fear","fear","f","true"
"null","<div style=""font-size:60px;"">+</div>","null","html-keyboard-response","25","87377","0.0-9.0-0.8","1ttd2a","Mon Feb 08 2021 10:21:34 GMT+0100 (Central European Standard Time)","2021","2","8","10","21","34","jo11","26","female","right","0","0","0","0","0","","","","","fixation","","","",""
"621","img/image_stim_h.png","72","image-keyboard-response","26","88000","0.0-9.0-1.8","1ttd2a","Mon Feb 08 2021 10:21:34 GMT+0100 (Central European Standard Time)","2021","2","8","10","21","34","jo11","26","female","right","0","0","0","0","0","","","","","test","happy","happy","h","true"
"null","<div style=""font-size:60px;"">+</div>","null","html-keyboard-response","27","89506","0.0-9.0-0.9","1ttd2a","Mon Feb 08 2021 10:21:34 GMT+0100 (Central European Standard Time)","2021","2","8","10","21","34","jo11","26","female","right","0","0","0","0","0","","","","","fixation","","","",""
"1131","img/image_stim_h_stroop.png","72","image-keyboard-response","28","90639","0.0-9.0-1.9","1ttd2a","Mon Feb 08 2021 10:21:34 GMT+0100 (Central European Standard Time)","2021","2","8","10","21","34","jo11","26","female","right","0","0","0","0","0","","","","","test","happy","fear","h","true"
"null","<div style=""font-size:60px;"">+</div>","null","html-keyboard-response","29","92392","0.0-9.0-0.10","1ttd2a","Mon Feb 08 2021 10:21:34 GMT+0100 (Central European Standard Time)","2021","2","8","10","21","34","jo11","26","female","right","0","0","0","0","0","","","","","fixation","","","",""
"721","img/image_stim_f_stroop.png","70","image-keyboard-response","30","93117","0.0-9.0-1.10","1ttd2a","Mon Feb 08 2021 10:21:34 GMT+0100 (Central European Standard Time)","2021","2","8","10","21","34","jo11","26","female","right","0","0","0","0","0","","","","","test","fear","happy","f","true"
"null","<div style=""font-size:60px;"">+</div>","null","html-keyboard-response","31","93373","0.0-9.0-0.11","1ttd2a","Mon Feb 08 2021 10:21:34 GMT+0100 (Central European Standard Time)","2021","2","8","10","21","34","jo11","26","female","right","0","0","0","0","0","","","","","fixation","","","",""
"749","img/image_stim_f.png","70","image-keyboard-response","32","94123","0.0-9.0-1.11","1ttd2a","Mon Feb 08 2021 10:21:34 GMT+0100 (Central European Standard Time)","2021","2","8","10","21","34","jo11","26","female","right","0","0","0","0","0","","","","","test","fear","fear","f","true"
"null","<div style=""font-size:60px;"">+</div>","null","html-keyboard-response","33","94631","0.0-9.0-0.12","1ttd2a","Mon Feb 08 2021 10:21:34 GMT+0100 (Central European Standard Time)","2021","2","8","10","21","34","jo11","26","female","right","0","0","0","0","0","","","","","fixation","","","",""
"577","img/image_stim_h.png","72","image-keyboard-response","34","95211","0.0-9.0-1.12","1ttd2a","Mon Feb 08 2021 10:21:34 GMT+0100 (Central European Standard Time)","2021","2","8","10","21","34","jo11","26","female","right","0","0","0","0","0","","","","","test","happy","happy","h","true"
"null","<div style=""font-size:60px;"">+</div>","null","html-keyboard-response","35","96212","0.0-9.0-0.13","1ttd2a","Mon Feb 08 2021 10:21:34 GMT+0100 (Central European Standard Time)","2021","2","8","10","21","34","jo11","26","female","right","0","0","0","0","0","","","","","fixation","","","",""
"814","img/image_stim_f.png","70","image-keyboard-response","36","97028","0.0-9.0-1.13","1ttd2a","Mon Feb 08 2021 10:21:34 GMT+0100 (Central European Standard Time)","2021","2","8","10","21","34","jo11","26","female","right","0","0","0","0","0","","","","","test","fear","fear","f","true"
"null","<div style=""font-size:60px;"">+</div>","null","html-keyboard-response","37","98284","0.0-9.0-0.14","1ttd2a","Mon Feb 08 2021 10:21:34 GMT+0100 (Central European Standard Time)","2021","2","8","10","21","34","jo11","26","female","right","0","0","0","0","0","","","","","fixation","","","",""
"468","img/image_stim_h_stroop.png","70","image-keyboard-response","38","98754","0.0-9.0-1.14","1ttd2a","Mon Feb 08 2021 10:21:34 GMT+0100 (Central European Standard Time)","2021","2","8","10","21","34","jo11","26","female","right","0","0","0","0","0","","","","","test","happy","fear","h","false"
"null","<div style=""font-size:60px;"">+</div>","null","html-keyboard-response","39","99259","0.0-9.0-0.15","1ttd2a","Mon Feb 08 2021 10:21:34 GMT+0100 (Central European Standard Time)","2021","2","8","10","21","34","jo11","26","female","right","0","0","0","0","0","","","","","fixation","","","",""
"927","img/image_stim_f_stroop.png","70","image-keyboard-response","40","100189","0.0-9.0-1.15","1ttd2a","Mon Feb 08 2021 10:21:34 GMT+0100 (Central European Standard Time)","2021","2","8","10","21","34","jo11","26","female","right","0","0","0","0","0","","","","","test","fear","happy","f","true"
"null","<div style=""font-size:60px;"">+</div>","null","html-keyboard-response","41","101694","0.0-9.0-0.16","1ttd2a","Mon Feb 08 2021 10:21:34 GMT+0100 (Central European Standard Time)","2021","2","8","10","21","34","jo11","26","female","right","0","0","0","0","0","","","","","fixation","","","",""
"891","img/image_stim_f.png","70","image-keyboard-response","42","102587","0.0-9.0-1.16","1ttd2a","Mon Feb 08 2021 10:21:34 GMT+0100 (Central European Standard Time)","2021","2","8","10","21","34","jo11","26","female","right","0","0","0","0","0","","","","","test","fear","fear","f","true"
"null","<div style=""font-size:60px;"">+</div>","null","html-keyboard-response","43","104593","0.0-9.0-0.17","1ttd2a","Mon Feb 08 2021 10:21:34 GMT+0100 (Central European Standard Time)","2021","2","8","10","21","34","jo11","26","female","right","0","0","0","0","0","","","","","fixation","","","",""
"887","img/image_stim_h_stroop.png","72","image-keyboard-response","44","105482","0.0-9.0-1.17","1ttd2a","Mon Feb 08 2021 10:21:34 GMT+0100 (Central European Standard Time)","2021","2","8","10","21","34","jo11","26","female","right","0","0","0","0","0","","","","","test","happy","fear","h","true"
"null","<div style=""font-size:60px;"">+</div>","null","html-keyboard-response","45","106738","0.0-9.0-0.18","1ttd2a","Mon Feb 08 2021 10:21:34 GMT+0100 (Central European Standard Time)","2021","2","8","10","21","34","jo11","26","female","right","0","0","0","0","0","","","","","fixation","","","",""
"932","img/image_stim_f_stroop.png","70","image-keyboard-response","46","107671","0.0-9.0-1.18","1ttd2a","Mon Feb 08 2021 10:21:34 GMT+0100 (Central European Standard Time)","2021","2","8","10","21","34","jo11","26","female","right","0","0","0","0","0","","","","","test","fear","happy","f","true"
"null","<div style=""font-size:60px;"">+</div>","null","html-keyboard-response","47","107925","0.0-9.0-0.19","1ttd2a","Mon Feb 08 2021 10:21:34 GMT+0100 (Central European Standard Time)","2021","2","8","10","21","34","jo11","26","female","right","0","0","0","0","0","","","","","fixation","","","",""
"673","img/image_stim_h.png","72","image-keyboard-response","48","108599","0.0-9.0-1.19","1ttd2a","Mon Feb 08 2021 10:21:34 GMT+0100 (Central European Standard Time)","2021","2","8","10","21","34","jo11","26","female","right","0","0","0","0","0","","","","","test","happy","happy","h","true"
"null","<div style=""font-size:60px;"">+</div>","null","html-keyboard-response","49","109856","0.0-9.0-0.20","1ttd2a","Mon Feb 08 2021 10:21:34 GMT+0100 (Central European Standard Time)","2021","2","8","10","21","34","jo11","26","female","right","0","0","0","0","0","","","","","fixation","","","",""
"605","img/image_stim_f_stroop.png","70","image-keyboard-response","50","110462","0.0-9.0-1.20","1ttd2a","Mon Feb 08 2021 10:21:34 GMT+0100 (Central European Standard Time)","2021","2","8","10","21","34","jo11","26","female","right","0","0","0","0","0","","","","","test","fear","happy","f","true"
"null","<div style=""font-size:60px;"">+</div>","null","html-keyboard-response","51","111719","0.0-9.0-0.21","1ttd2a","Mon Feb 08 2021 10:21:34 GMT+0100 (Central European Standard Time)","2021","2","8","10","21","34","jo11","26","female","right","0","0","0","0","0","","","","","fixation","","","",""
"892","img/image_stim_h_stroop.png","70","image-keyboard-response","52","112614","0.0-9.0-1.21","1ttd2a","Mon Feb 08 2021 10:21:34 GMT+0100 (Central European Standard Time)","2021","2","8","10","21","34","jo11","26","female","right","0","0","0","0","0","","","","","test","happy","fear","h","false"
"null","<div style=""font-size:60px;"">+</div>","null","html-keyboard-response","53","113867","0.0-9.0-0.22","1ttd2a","Mon Feb 08 2021 10:21:34 GMT+0100 (Central European Standard Time)","2021","2","8","10","21","34","jo11","26","female","right","0","0","0","0","0","","","","","fixation","","","",""
"605","img/image_stim_f.png","70","image-keyboard-response","54","114473","0.0-9.0-1.22","1ttd2a","Mon Feb 08 2021 10:21:34 GMT+0100 (Central European Standard Time)","2021","2","8","10","21","34","jo11","26","female","right","0","0","0","0","0","","","","","test","fear","fear","f","true"
"null","<div style=""font-size:60px;"">+</div>","null","html-keyboard-response","55","115227","0.0-9.0-0.23","1ttd2a","Mon Feb 08 2021 10:21:34 GMT+0100 (Central European Standard Time)","2021","2","8","10","21","34","jo11","26","female","right","0","0","0","0","0","","","","","fixation","","","",""
"588","img/image_stim_h.png","72","image-keyboard-response","56","115817","0.0-9.0-1.23","1ttd2a","Mon Feb 08 2021 10:21:34 GMT+0100 (Central European Standard Time)","2021","2","8","10","21","34","jo11","26","female","right","0","0","0","0","0","","","","","test","happy","happy","h","true"
"null","<div style=""font-size:60px;"">+</div>","null","html-keyboard-response","57","117072","0.0-9.0-0.24","1ttd2a","Mon Feb 08 2021 10:21:34 GMT+0100 (Central European Standard Time)","2021","2","8","10","21","34","jo11","26","female","right","0","0","0","0","0","","","","","fixation","","","",""
"599","img/image_stim_f.png","70","image-keyboard-response","58","117672","0.0-9.0-1.24","1ttd2a","Mon Feb 08 2021 10:21:34 GMT+0100 (Central European Standard Time)","2021","2","8","10","21","34","jo11","26","female","right","0","0","0","0","0","","","","","test","fear","fear","f","true"
"null","<div style=""font-size:60px;"">+</div>","null","html-keyboard-response","59","118926","0.0-9.0-0.25","1ttd2a","Mon Feb 08 2021 10:21:34 GMT+0100 (Central European Standard Time)","2021","2","8","10","21","34","jo11","26","female","right","0","0","0","0","0","","","","","fixation","","","",""
"647","img/image_stim_f_stroop.png","70","image-keyboard-response","60","119576","0.0-9.0-1.25","1ttd2a","Mon Feb 08 2021 10:21:34 GMT+0100 (Central European Standard Time)","2021","2","8","10","21","34","jo11","26","female","right","0","0","0","0","0","","","","","test","fear","happy","f","true"
"null","<div style=""font-size:60px;"">+</div>","null","html-keyboard-response","61","120579","0.0-9.0-0.26","1ttd2a","Mon Feb 08 2021 10:21:34 GMT+0100 (Central European Standard Time)","2021","2","8","10","21","34","jo11","26","female","right","0","0","0","0","0","","","","","fixation","","","",""
"531","img/image_stim_h.png","72","image-keyboard-response","62","121112","0.0-9.0-1.26","1ttd2a","Mon Feb 08 2021 10:21:34 GMT+0100 (Central European Standard Time)","2021","2","8","10","21","34","jo11","26","female","right","0","0","0","0","0","","","","","test","happy","happy","h","true"
"null","<div style=""font-size:60px;"">+</div>","null","html-keyboard-response","63","122615","0.0-9.0-0.27","1ttd2a","Mon Feb 08 2021 10:21:34 GMT+0100 (Central European Standard Time)","2021","2","8","10","21","34","jo11","26","female","right","0","0","0","0","0","","","","","fixation","","","",""
"855","img/image_stim_h_stroop.png","70","image-keyboard-response","64","123471","0.0-9.0-1.27","1ttd2a","Mon Feb 08 2021 10:21:34 GMT+0100 (Central European Standard Time)","2021","2","8","10","21","34","jo11","26","female","right","0","0","0","0","0","","","","","test","happy","fear","h","false"
"null","<div style=""font-size:60px;"">+</div>","null","html-keyboard-response","65","125479","0.0-9.0-0.28","1ttd2a","Mon Feb 08 2021 10:21:34 GMT+0100 (Central European Standard Time)","2021","2","8","10","21","34","jo11","26","female","right","0","0","0","0","0","","","","","fixation","","","",""
"774","img/image_stim_h_stroop.png","70","image-keyboard-response","66","126254","0.0-9.0-1.28","1ttd2a","Mon Feb 08 2021 10:21:34 GMT+0100 (Central European Standard Time)","2021","2","8","10","21","34","jo11","26","female","right","0","0","0","0","0","","","","","test","happy","fear","h","false"
"null","<div style=""font-size:60px;"">+</div>","null","html-keyboard-response","67","127007","0.0-9.0-0.29","1ttd2a","Mon Feb 08 2021 10:21:34 GMT+0100 (Central European Standard Time)","2021","2","8","10","21","34","jo11","26","female","right","0","0","0","0","0","","","","","fixation","","","",""
"862","img/image_stim_f_stroop.png","70","image-keyboard-response","68","127871","0.0-9.0-1.29","1ttd2a","Mon Feb 08 2021 10:21:34 GMT+0100 (Central European Standard Time)","2021","2","8","10","21","34","jo11","26","female","right","0","0","0","0","0","","","","","test","fear","happy","f","true"
"null","<div style=""font-size:60px;"">+</div>","null","html-keyboard-response","69","128628","0.0-9.0-0.30","1ttd2a","Mon Feb 08 2021 10:21:34 GMT+0100 (Central European Standard Time)","2021","2","8","10","21","34","jo11","26","female","right","0","0","0","0","0","","","","","fixation","","","",""
"585","img/image_stim_f.png","70","image-keyboard-response","70","129214","0.0-9.0-1.30","1ttd2a","Mon Feb 08 2021 10:21:34 GMT+0100 (Central European Standard Time)","2021","2","8","10","21","34","jo11","26","female","right","0","0","0","0","0","","","","","test","fear","fear","f","true"
"null","<div style=""font-size:60px;"">+</div>","null","html-keyboard-response","71","131217","0.0-9.0-0.31","1ttd2a","Mon Feb 08 2021 10:21:34 GMT+0100 (Central European Standard Time)","2021","2","8","10","21","34","jo11","26","female","right","0","0","0","0","0","","","","","fixation","","","",""
"461","img/image_stim_h.png","72","image-keyboard-response","72","131680","0.0-9.0-1.31","1ttd2a","Mon Feb 08 2021 10:21:34 GMT+0100 (Central European Standard Time)","2021","2","8","10","21","34","jo11","26","female","right","0","0","0","0","0","","","","","test","happy","happy","h","true"
"null","<div style=""font-size:60px;"">+</div>","null","html-keyboard-response","73","132936","0.0-9.0-0.32","1ttd2a","Mon Feb 08 2021 10:21:34 GMT+0100 (Central European Standard Time)","2021","2","8","10","21","34","jo11","26","female","right","0","0","0","0","0","","","","","fixation","","","",""
"524","img/image_stim_f.png","70","image-keyboard-response","74","133463","0.0-9.0-1.32","1ttd2a","Mon Feb 08 2021 10:21:34 GMT+0100 (Central European Standard Time)","2021","2","8","10","21","34","jo11","26","female","right","0","0","0","0","0","","","","","test","fear","fear","f","true"
"null","<div style=""font-size:60px;"">+</div>","null","html-keyboard-response","75","134719","0.0-9.0-0.33","1ttd2a","Mon Feb 08 2021 10:21:34 GMT+0100 (Central European Standard Time)","2021","2","8","10","21","34","jo11","26","female","right","0","0","0","0","0","","","","","fixation","","","",""
"685","img/image_stim_h_stroop.png","72","image-keyboard-response","76","135407","0.0-9.0-1.33","1ttd2a","Mon Feb 08 2021 10:21:34 GMT+0100 (Central European Standard Time)","2021","2","8","10","21","34","jo11","26","female","right","0","0","0","0","0","","","","","test","happy","fear","h","true"
"null","<div style=""font-size:60px;"">+</div>","null","html-keyboard-response","77","137414","0.0-9.0-0.34","1ttd2a","Mon Feb 08 2021 10:21:34 GMT+0100 (Central European Standard Time)","2021","2","8","10","21","34","jo11","26","female","right","0","0","0","0","0","","","","","fixation","","","",""
"405","img/image_stim_h.png","72","image-keyboard-response","78","137821","0.0-9.0-1.34","1ttd2a","Mon Feb 08 2021 10:21:34 GMT+0100 (Central European Standard Time)","2021","2","8","10","21","34","jo11","26","female","right","0","0","0","0","0","","","","","test","happy","happy","h","true"
"null","<div style=""font-size:60px;"">+</div>","null","html-keyboard-response","79","139579","0.0-9.0-0.35","1ttd2a","Mon Feb 08 2021 10:21:34 GMT+0100 (Central European Standard Time)","2021","2","8","10","21","34","jo11","26","female","right","0","0","0","0","0","","","","","fixation","","","",""
"606","img/image_stim_f_stroop.png","70","image-keyboard-response","80","140188","0.0-9.0-1.35","1ttd2a","Mon Feb 08 2021 10:21:34 GMT+0100 (Central European Standard Time)","2021","2","8","10","21","34","jo11","26","female","right","0","0","0","0","0","","","","","test","fear","happy","f","true"
