"rt","stimulus","key_press","trial_type","trial_index","time_elapsed","internal_node_id","exp_id","Time","year","month","date","hour","minute","seconds","id","age","Gender","Handedness","mood","fresh","H_since_Sleep","H_since_Eat","responses","question_order","slider_start","response","test_part","face","word","correct_response","correct"
"1538","<p>Welcome to this experiment on daily rhythms and cognition.</p><p>First you will be asked some questions about yourself.</p><p>Then a short experiment will measure your response time.</p><p>Take the test at different times of the day/night.</p><p><strong>Press any key to begin.</strong></p>","32","html-keyboard-response","0","1539","0.0-0.0","lcyhsr","Sun Feb 07 2021 11:05:11 GMT+0100 (CET)","2021","2","7","11","5","11","mw73","47","male","right","71","64","3","1","","","","","","","","",""
"6035.000000000001","","","survey-text","1","7581","0.0-1.0","lcyhsr","Sun Feb 07 2021 11:05:11 GMT+0100 (CET)","2021","2","7","11","5","11","mw73","47","male","right","71","64","3","1","{""Q0"":""mw73""}","","","","","","","",""
"5710.000000000002","","","survey-text","2","13295","0.0-2.0","lcyhsr","Sun Feb 07 2021 11:05:11 GMT+0100 (CET)","2021","2","7","11","5","11","mw73","47","male","right","71","64","3","1","{""Q0"":""47""}","","","","","","","",""
"7190","","","survey-multi-select","3","20486","0.0-3.0","lcyhsr","Sun Feb 07 2021 11:05:11 GMT+0100 (CET)","2021","2","7","11","5","11","mw73","47","male","right","71","64","3","1","{""Gender"":[""male""],""Hand"":[""right""]}","[0,1]","","","","","","",""
"2933.0000000000036","<p>How Sad/Angry or Happy are you right now?</p>","","html-slider-response","4","23420","0.0-4.0","lcyhsr","Sun Feb 07 2021 11:05:11 GMT+0100 (CET)","2021","2","7","11","5","11","mw73","47","male","right","71","64","3","1","","","50","71","","","","",""
"2959","<p>How Tired/Sleepy or Fresh/Awake are you right now?</p>","","html-slider-response","5","26381","0.0-5.0","lcyhsr","Sun Feb 07 2021 11:05:11 GMT+0100 (CET)","2021","2","7","11","5","11","mw73","47","male","right","71","64","3","1","","","50","64","","","","",""
"4701.999999999996","","","survey-multi-select","6","31093","0.0-6.0","lcyhsr","Sun Feb 07 2021 11:05:11 GMT+0100 (CET)","2021","2","7","11","5","11","mw73","47","male","right","71","64","3","1","{""Sleep"":[""3""],""Eat"":[""1""]}","[0,1]","","","","","","",""
"5624.000000000007","<p>In this experiment, a face and a word will appear in the center of the screen.</p><p>If the face is <strong>happy</strong>, press the letter <strong>H</strong> with <strong>right</strong> index finger.</p><p>If the face is <strong>fearful</strong>, press the letter <strong>F</strong> with <strong>left</strong> index finger.</p><p>Respond as fast as possible while being correct. <strong>Ignore</strong> the written words. </p><div style='width: 900px;'><div style='float: left;'><img src='img/stimuli_stroop_happy.png'></img><p class='small'><strong>Press the H key for happy faces</strong></p></div><div class='float: right;'><img src='img/stimuli_stroop_fear.png'></img><p class='small'><strong>Press the F key for faces with fear</strong></p></div></div><p></p><p>Press any key to begin.</p>","72","html-keyboard-response","7","36718","0.0-7.0","lcyhsr","Sun Feb 07 2021 11:05:11 GMT+0100 (CET)","2021","2","7","11","5","11","mw73","47","male","right","71","64","3","1","","","","","","","","",""
"null","<div style=""font-size:60px;"">+</div>","null","html-keyboard-response","8","39474","0.0-8.0-0.0","lcyhsr","Sun Feb 07 2021 11:05:11 GMT+0100 (CET)","2021","2","7","11","5","11","mw73","47","male","right","71","64","3","1","","","","","fixation","","","",""
"1621","img/image_stim_h_stroop.png","72","image-keyboard-response","9","41098","0.0-8.0-1.0","lcyhsr","Sun Feb 07 2021 11:05:11 GMT+0100 (CET)","2021","2","7","11","5","11","mw73","47","male","right","71","64","3","1","","","","","test","happy","fear","h","true"
"null","<div style=""font-size:60px;"">+</div>","null","html-keyboard-response","10","42100","0.0-8.0-0.1","lcyhsr","Sun Feb 07 2021 11:05:11 GMT+0100 (CET)","2021","2","7","11","5","11","mw73","47","male","right","71","64","3","1","","","","","fixation","","","",""
"1342.9999999999927","img/image_stim_h.png","72","image-keyboard-response","11","43445","0.0-8.0-1.1","lcyhsr","Sun Feb 07 2021 11:05:11 GMT+0100 (CET)","2021","2","7","11","5","11","mw73","47","male","right","71","64","3","1","","","","","test","happy","happy","h","true"
"null","<div style=""font-size:60px;"">+</div>","null","html-keyboard-response","12","43947","0.0-8.0-0.2","lcyhsr","Sun Feb 07 2021 11:05:11 GMT+0100 (CET)","2021","2","7","11","5","11","mw73","47","male","right","71","64","3","1","","","","","fixation","","","",""
"1277","img/image_stim_f.png","72","image-keyboard-response","13","45225","0.0-8.0-1.2","lcyhsr","Sun Feb 07 2021 11:05:11 GMT+0100 (CET)","2021","2","7","11","5","11","mw73","47","male","right","71","64","3","1","","","","","test","fear","fear","f","false"
"null","<div style=""font-size:60px;"">+</div>","null","html-keyboard-response","14","47228","0.0-8.0-0.3","lcyhsr","Sun Feb 07 2021 11:05:11 GMT+0100 (CET)","2021","2","7","11","5","11","mw73","47","male","right","71","64","3","1","","","","","fixation","","","",""
"794.0000000000073","img/image_stim_f_stroop.png","72","image-keyboard-response","15","48023","0.0-8.0-1.3","lcyhsr","Sun Feb 07 2021 11:05:11 GMT+0100 (CET)","2021","2","7","11","5","11","mw73","47","male","right","71","64","3","1","","","","","test","fear","happy","f","false"
"null","<div style=""font-size:60px;"">+</div>","null","html-keyboard-response","16","48525","0.0-8.0-0.4","lcyhsr","Sun Feb 07 2021 11:05:11 GMT+0100 (CET)","2021","2","7","11","5","11","mw73","47","male","right","71","64","3","1","","","","","fixation","","","",""
"1124.0000000000073","img/image_stim_h_stroop.png","72","image-keyboard-response","17","49651","0.0-8.0-1.4","lcyhsr","Sun Feb 07 2021 11:05:11 GMT+0100 (CET)","2021","2","7","11","5","11","mw73","47","male","right","71","64","3","1","","","","","test","happy","fear","h","true"
"null","<div style=""font-size:60px;"">+</div>","null","html-keyboard-response","18","51404","0.0-8.0-0.5","lcyhsr","Sun Feb 07 2021 11:05:11 GMT+0100 (CET)","2021","2","7","11","5","11","mw73","47","male","right","71","64","3","1","","","","","fixation","","","",""
"990.0000000000073","img/image_stim_f_stroop.png","70","image-keyboard-response","19","52399","0.0-8.0-1.5","lcyhsr","Sun Feb 07 2021 11:05:11 GMT+0100 (CET)","2021","2","7","11","5","11","mw73","47","male","right","71","64","3","1","","","","","test","fear","happy","f","true"
"null","<div style=""font-size:60px;"">+</div>","null","html-keyboard-response","20","52902","0.0-8.0-0.6","lcyhsr","Sun Feb 07 2021 11:05:11 GMT+0100 (CET)","2021","2","7","11","5","11","mw73","47","male","right","71","64","3","1","","","","","fixation","","","",""
"794.9999999999927","img/image_stim_f.png","70","image-keyboard-response","21","53699","0.0-8.0-1.6","lcyhsr","Sun Feb 07 2021 11:05:11 GMT+0100 (CET)","2021","2","7","11","5","11","mw73","47","male","right","71","64","3","1","","","","","test","fear","fear","f","true"
"null","<div style=""font-size:60px;"">+</div>","null","html-keyboard-response","22","54702","0.0-8.0-0.7","lcyhsr","Sun Feb 07 2021 11:05:11 GMT+0100 (CET)","2021","2","7","11","5","11","mw73","47","male","right","71","64","3","1","","","","","fixation","","","",""
"595","img/image_stim_h.png","72","image-keyboard-response","23","55300","0.0-8.0-1.7","lcyhsr","Sun Feb 07 2021 11:05:11 GMT+0100 (CET)","2021","2","7","11","5","11","mw73","47","male","right","71","64","3","1","","","","","test","happy","happy","h","true"
"null","<div style=""font-size:60px;"">+</div>","null","html-keyboard-response","24","56803","0.0-8.0-0.8","lcyhsr","Sun Feb 07 2021 11:05:11 GMT+0100 (CET)","2021","2","7","11","5","11","mw73","47","male","right","71","64","3","1","","","","","fixation","","","",""
"731","img/image_stim_f.png","70","image-keyboard-response","25","57537","0.0-8.0-1.8","lcyhsr","Sun Feb 07 2021 11:05:11 GMT+0100 (CET)","2021","2","7","11","5","11","mw73","47","male","right","71","64","3","1","","","","","test","fear","fear","f","true"
"null","<div style=""font-size:60px;"">+</div>","null","html-keyboard-response","26","58540","0.0-8.0-0.9","lcyhsr","Sun Feb 07 2021 11:05:11 GMT+0100 (CET)","2021","2","7","11","5","11","mw73","47","male","right","71","64","3","1","","","","","fixation","","","",""
"1306.9999999999927","img/image_stim_f_stroop.png","72","image-keyboard-response","27","59849","0.0-8.0-1.9","lcyhsr","Sun Feb 07 2021 11:05:11 GMT+0100 (CET)","2021","2","7","11","5","11","mw73","47","male","right","71","64","3","1","","","","","test","fear","happy","f","false"
"null","<div style=""font-size:60px;"">+</div>","null","html-keyboard-response","28","60602","0.0-8.0-0.10","lcyhsr","Sun Feb 07 2021 11:05:11 GMT+0100 (CET)","2021","2","7","11","5","11","mw73","47","male","right","71","64","3","1","","","","","fixation","","","",""
"777.9999999999927","img/image_stim_h.png","72","image-keyboard-response","29","61383","0.0-8.0-1.10","lcyhsr","Sun Feb 07 2021 11:05:11 GMT+0100 (CET)","2021","2","7","11","5","11","mw73","47","male","right","71","64","3","1","","","","","test","happy","happy","h","true"
"null","<div style=""font-size:60px;"">+</div>","null","html-keyboard-response","30","62386","0.0-8.0-0.11","lcyhsr","Sun Feb 07 2021 11:05:11 GMT+0100 (CET)","2021","2","7","11","5","11","mw73","47","male","right","71","64","3","1","","","","","fixation","","","",""
"700","img/image_stim_h_stroop.png","72","image-keyboard-response","31","63089","0.0-8.0-1.11","lcyhsr","Sun Feb 07 2021 11:05:11 GMT+0100 (CET)","2021","2","7","11","5","11","mw73","47","male","right","71","64","3","1","","","","","test","happy","fear","h","true"
"null","<div style=""font-size:60px;"">+</div>","null","html-keyboard-response","32","64092","0.0-8.0-0.12","lcyhsr","Sun Feb 07 2021 11:05:11 GMT+0100 (CET)","2021","2","7","11","5","11","mw73","47","male","right","71","64","3","1","","","","","fixation","","","",""
"832.0000000000073","img/image_stim_f.png","70","image-keyboard-response","33","64927","0.0-8.0-1.12","lcyhsr","Sun Feb 07 2021 11:05:11 GMT+0100 (CET)","2021","2","7","11","5","11","mw73","47","male","right","71","64","3","1","","","","","test","fear","fear","f","true"
"null","<div style=""font-size:60px;"">+</div>","null","html-keyboard-response","34","66680","0.0-8.0-0.13","lcyhsr","Sun Feb 07 2021 11:05:11 GMT+0100 (CET)","2021","2","7","11","5","11","mw73","47","male","right","71","64","3","1","","","","","fixation","","","",""
"956","img/image_stim_f_stroop.png","70","image-keyboard-response","35","67641","0.0-8.0-1.13","lcyhsr","Sun Feb 07 2021 11:05:11 GMT+0100 (CET)","2021","2","7","11","5","11","mw73","47","male","right","71","64","3","1","","","","","test","fear","happy","f","true"
"null","<div style=""font-size:60px;"">+</div>","null","html-keyboard-response","36","68143","0.0-8.0-0.14","lcyhsr","Sun Feb 07 2021 11:05:11 GMT+0100 (CET)","2021","2","7","11","5","11","mw73","47","male","right","71","64","3","1","","","","","fixation","","","",""
"808.0000000000146","img/image_stim_h.png","72","image-keyboard-response","37","68954","0.0-8.0-1.14","lcyhsr","Sun Feb 07 2021 11:05:11 GMT+0100 (CET)","2021","2","7","11","5","11","mw73","47","male","right","71","64","3","1","","","","","test","happy","happy","h","true"
"null","<div style=""font-size:60px;"">+</div>","null","html-keyboard-response","38","70957","0.0-8.0-0.15","lcyhsr","Sun Feb 07 2021 11:05:11 GMT+0100 (CET)","2021","2","7","11","5","11","mw73","47","male","right","71","64","3","1","","","","","fixation","","","",""
"748.9999999999854","img/image_stim_h_stroop.png","72","image-keyboard-response","39","71709","0.0-8.0-1.15","lcyhsr","Sun Feb 07 2021 11:05:11 GMT+0100 (CET)","2021","2","7","11","5","11","mw73","47","male","right","71","64","3","1","","","","","test","happy","fear","h","true"
"null","<div style=""font-size:60px;"">+</div>","null","html-keyboard-response","40","72462","0.0-8.0-0.16","lcyhsr","Sun Feb 07 2021 11:05:11 GMT+0100 (CET)","2021","2","7","11","5","11","mw73","47","male","right","71","64","3","1","","","","","fixation","","","",""
"775","img/image_stim_h.png","72","image-keyboard-response","41","73242","0.0-8.0-1.16","lcyhsr","Sun Feb 07 2021 11:05:11 GMT+0100 (CET)","2021","2","7","11","5","11","mw73","47","male","right","71","64","3","1","","","","","test","happy","happy","h","true"
"null","<div style=""font-size:60px;"">+</div>","null","html-keyboard-response","42","74995","0.0-8.0-0.17","lcyhsr","Sun Feb 07 2021 11:05:11 GMT+0100 (CET)","2021","2","7","11","5","11","mw73","47","male","right","71","64","3","1","","","","","fixation","","","",""
"1010","img/image_stim_f_stroop.png","72","image-keyboard-response","43","76007","0.0-8.0-1.17","lcyhsr","Sun Feb 07 2021 11:05:11 GMT+0100 (CET)","2021","2","7","11","5","11","mw73","47","male","right","71","64","3","1","","","","","test","fear","happy","f","false"
"null","<div style=""font-size:60px;"">+</div>","null","html-keyboard-response","44","77260","0.0-8.0-0.18","lcyhsr","Sun Feb 07 2021 11:05:11 GMT+0100 (CET)","2021","2","7","11","5","11","mw73","47","male","right","71","64","3","1","","","","","fixation","","","",""
"1016","img/image_stim_f.png","70","image-keyboard-response","45","78279","0.0-8.0-1.18","lcyhsr","Sun Feb 07 2021 11:05:11 GMT+0100 (CET)","2021","2","7","11","5","11","mw73","47","male","right","71","64","3","1","","","","","test","fear","fear","f","true"
"null","<div style=""font-size:60px;"">+</div>","null","html-keyboard-response","46","79282","0.0-8.0-0.19","lcyhsr","Sun Feb 07 2021 11:05:11 GMT+0100 (CET)","2021","2","7","11","5","11","mw73","47","male","right","71","64","3","1","","","","","fixation","","","",""
"734","img/image_stim_h_stroop.png","72","image-keyboard-response","47","80019","0.0-8.0-1.19","lcyhsr","Sun Feb 07 2021 11:05:11 GMT+0100 (CET)","2021","2","7","11","5","11","mw73","47","male","right","71","64","3","1","","","","","test","happy","fear","h","true"
"null","<div style=""font-size:60px;"">+</div>","null","html-keyboard-response","48","81772","0.0-8.0-0.20","lcyhsr","Sun Feb 07 2021 11:05:11 GMT+0100 (CET)","2021","2","7","11","5","11","mw73","47","male","right","71","64","3","1","","","","","fixation","","","",""
"845","img/image_stim_f.png","70","image-keyboard-response","49","82620","0.0-8.0-1.20","lcyhsr","Sun Feb 07 2021 11:05:11 GMT+0100 (CET)","2021","2","7","11","5","11","mw73","47","male","right","71","64","3","1","","","","","test","fear","fear","f","true"
"null","<div style=""font-size:60px;"">+</div>","null","html-keyboard-response","50","83123","0.0-8.0-0.21","lcyhsr","Sun Feb 07 2021 11:05:11 GMT+0100 (CET)","2021","2","7","11","5","11","mw73","47","male","right","71","64","3","1","","","","","fixation","","","",""
"803","img/image_stim_f_stroop.png","70","image-keyboard-response","51","83929","0.0-8.0-1.21","lcyhsr","Sun Feb 07 2021 11:05:11 GMT+0100 (CET)","2021","2","7","11","5","11","mw73","47","male","right","71","64","3","1","","","","","test","fear","happy","f","true"
"null","<div style=""font-size:60px;"">+</div>","null","html-keyboard-response","52","85682","0.0-8.0-0.22","lcyhsr","Sun Feb 07 2021 11:05:11 GMT+0100 (CET)","2021","2","7","11","5","11","mw73","47","male","right","71","64","3","1","","","","","fixation","","","",""
"666","img/image_stim_h_stroop.png","72","image-keyboard-response","53","86350","0.0-8.0-1.22","lcyhsr","Sun Feb 07 2021 11:05:11 GMT+0100 (CET)","2021","2","7","11","5","11","mw73","47","male","right","71","64","3","1","","","","","test","happy","fear","h","true"
"null","<div style=""font-size:60px;"">+</div>","null","html-keyboard-response","54","87603","0.0-8.0-0.23","lcyhsr","Sun Feb 07 2021 11:05:11 GMT+0100 (CET)","2021","2","7","11","5","11","mw73","47","male","right","71","64","3","1","","","","","fixation","","","",""
"657","img/image_stim_h.png","72","image-keyboard-response","55","88263","0.0-8.0-1.23","lcyhsr","Sun Feb 07 2021 11:05:11 GMT+0100 (CET)","2021","2","7","11","5","11","mw73","47","male","right","71","64","3","1","","","","","test","happy","happy","h","true"
"null","<div style=""font-size:60px;"">+</div>","null","html-keyboard-response","56","90267","0.0-8.0-0.24","lcyhsr","Sun Feb 07 2021 11:05:11 GMT+0100 (CET)","2021","2","7","11","5","11","mw73","47","male","right","71","64","3","1","","","","","fixation","","","",""
"1056.0000000000146","img/image_stim_h.png","72","image-keyboard-response","57","91326","0.0-8.0-1.24","lcyhsr","Sun Feb 07 2021 11:05:11 GMT+0100 (CET)","2021","2","7","11","5","11","mw73","47","male","right","71","64","3","1","","","","","test","happy","happy","h","true"
"null","<div style=""font-size:60px;"">+</div>","null","html-keyboard-response","58","93328","0.0-8.0-0.25","lcyhsr","Sun Feb 07 2021 11:05:11 GMT+0100 (CET)","2021","2","7","11","5","11","mw73","47","male","right","71","64","3","1","","","","","fixation","","","",""
"1048","img/image_stim_f_stroop.png","72","image-keyboard-response","59","94379","0.0-8.0-1.25","lcyhsr","Sun Feb 07 2021 11:05:11 GMT+0100 (CET)","2021","2","7","11","5","11","mw73","47","male","right","71","64","3","1","","","","","test","fear","happy","f","false"
"null","<div style=""font-size:60px;"">+</div>","null","html-keyboard-response","60","95383","0.0-8.0-0.26","lcyhsr","Sun Feb 07 2021 11:05:11 GMT+0100 (CET)","2021","2","7","11","5","11","mw73","47","male","right","71","64","3","1","","","","","fixation","","","",""
"690","img/image_stim_h_stroop.png","72","image-keyboard-response","61","96075","0.0-8.0-1.26","lcyhsr","Sun Feb 07 2021 11:05:11 GMT+0100 (CET)","2021","2","7","11","5","11","mw73","47","male","right","71","64","3","1","","","","","test","happy","fear","h","true"
"null","<div style=""font-size:60px;"">+</div>","null","html-keyboard-response","62","97828","0.0-8.0-0.27","lcyhsr","Sun Feb 07 2021 11:05:11 GMT+0100 (CET)","2021","2","7","11","5","11","mw73","47","male","right","71","64","3","1","","","","","fixation","","","",""
"678","img/image_stim_f.png","70","image-keyboard-response","63","98509","0.0-8.0-1.27","lcyhsr","Sun Feb 07 2021 11:05:11 GMT+0100 (CET)","2021","2","7","11","5","11","mw73","47","male","right","71","64","3","1","","","","","test","fear","fear","f","true"
"null","<div style=""font-size:60px;"">+</div>","null","html-keyboard-response","64","98762","0.0-8.0-0.28","lcyhsr","Sun Feb 07 2021 11:05:11 GMT+0100 (CET)","2021","2","7","11","5","11","mw73","47","male","right","71","64","3","1","","","","","fixation","","","",""
"1382","img/image_stim_f.png","70","image-keyboard-response","65","100146","0.0-8.0-1.28","lcyhsr","Sun Feb 07 2021 11:05:11 GMT+0100 (CET)","2021","2","7","11","5","11","mw73","47","male","right","71","64","3","1","","","","","test","fear","fear","f","true"
"null","<div style=""font-size:60px;"">+</div>","null","html-keyboard-response","66","101400","0.0-8.0-0.29","lcyhsr","Sun Feb 07 2021 11:05:11 GMT+0100 (CET)","2021","2","7","11","5","11","mw73","47","male","right","71","64","3","1","","","","","fixation","","","",""
"807.0000000000146","img/image_stim_f_stroop.png","70","image-keyboard-response","67","102210","0.0-8.0-1.29","lcyhsr","Sun Feb 07 2021 11:05:11 GMT+0100 (CET)","2021","2","7","11","5","11","mw73","47","male","right","71","64","3","1","","","","","test","fear","happy","f","true"
"null","<div style=""font-size:60px;"">+</div>","null","html-keyboard-response","68","102714","0.0-8.0-0.30","lcyhsr","Sun Feb 07 2021 11:05:11 GMT+0100 (CET)","2021","2","7","11","5","11","mw73","47","male","right","71","64","3","1","","","","","fixation","","","",""
"728.0000000000146","img/image_stim_h_stroop.png","72","image-keyboard-response","69","103445","0.0-8.0-1.30","lcyhsr","Sun Feb 07 2021 11:05:11 GMT+0100 (CET)","2021","2","7","11","5","11","mw73","47","male","right","71","64","3","1","","","","","test","happy","fear","h","true"
"null","<div style=""font-size:60px;"">+</div>","null","html-keyboard-response","70","104947","0.0-8.0-0.31","lcyhsr","Sun Feb 07 2021 11:05:11 GMT+0100 (CET)","2021","2","7","11","5","11","mw73","47","male","right","71","64","3","1","","","","","fixation","","","",""
"1030","img/image_stim_h.png","72","image-keyboard-response","71","105980","0.0-8.0-1.31","lcyhsr","Sun Feb 07 2021 11:05:11 GMT+0100 (CET)","2021","2","7","11","5","11","mw73","47","male","right","71","64","3","1","","","","","test","happy","happy","h","true"
