"rt","stimulus","key_press","trial_type","trial_index","time_elapsed","internal_node_id","exp_id","Time","year","month","date","hour","minute","seconds","id","age","Gender","Handedness","mood","fresh","hunger","H_since_Sleep","H_since_Eat","responses","question_order","slider_start","response","test_part","face","word","correct_response","correct"
"5508","<p>Welcome to this experiment on daily rhythms and cognition.</p><p>First you will be asked some questions about yourself.</p><p>Then a short experiment will measure your response time.</p><p>Take the test at different times of the day/night.</p><p>The test is anonymous, but comparing your data across time is important.</p><p>Therefore, please make up and remember a personal ID (two letters+ two numbers).</p><p>Use this ID whenever taking the test.</p><p><strong>Press any key to begin.</strong></p>","32","html-keyboard-response","0","5510","0.0-0.0","3odt0h","Thu Feb 10 2022 00:12:41 GMT+0100 (CET)","2022","2","10","0","12","41","mw73","48","male","right","78","75","76","15","1","","","","","","","","",""
"6911.000000000002","","","survey-text","1","12448","0.0-1.0","3odt0h","Thu Feb 10 2022 00:12:41 GMT+0100 (CET)","2022","2","10","0","12","41","mw73","48","male","right","78","75","76","15","1","{""Q0"":""mw73""}","","","","","","","",""
"4801.000000000004","","","survey-text","2","17254","0.0-2.0","3odt0h","Thu Feb 10 2022 00:12:41 GMT+0100 (CET)","2022","2","10","0","12","41","mw73","48","male","right","78","75","76","15","1","{""Q0"":""48""}","","","","","","","",""
"6373.000000000004","","","survey-multi-select","3","23629","0.0-3.0","3odt0h","Thu Feb 10 2022 00:12:41 GMT+0100 (CET)","2022","2","10","0","12","41","mw73","48","male","right","78","75","76","15","1","{""Gender"":[""male""],""Hand"":[""right""]}","[0,1]","","","","","","",""
"4675","<p>How Sad/Angry or Happy are you right now?</p>","","html-slider-response","4","28305","0.0-4.0","3odt0h","Thu Feb 10 2022 00:12:41 GMT+0100 (CET)","2022","2","10","0","12","41","mw73","48","male","right","78","75","76","15","1","","","50","78","","","","",""
"6034","<p>How Tired/Sleepy/Distracted or Fresh/Awake/Alert are you right now?</p>","","html-slider-response","5","34339","0.0-5.0","3odt0h","Thu Feb 10 2022 00:12:41 GMT+0100 (CET)","2022","2","10","0","12","41","mw73","48","male","right","78","75","76","15","1","","","50","75","","","","",""
"8359","<p>How Hungry or Satiated are you right now?</p>","","html-slider-response","6","42698","0.0-6.0","3odt0h","Thu Feb 10 2022 00:12:41 GMT+0100 (CET)","2022","2","10","0","12","41","mw73","48","male","right","78","75","76","15","1","","","50","76","","","","",""
"57784.000000000015","","","survey-multi-select","7","100492","0.0-7.0","3odt0h","Thu Feb 10 2022 00:12:41 GMT+0100 (CET)","2022","2","10","0","12","41","mw73","48","male","right","78","75","76","15","1","{""Sleep"":[""15""],""Eat"":[""1""]}","[0,1]","","","","","","",""
"17236","<p>In this experiment, a face and a word will appear in the center of the screen.</p><p>If the face is <strong>happy</strong>, press the letter <strong>H</strong> with <strong>right</strong> index finger.</p><p>If the face is <strong>fearful</strong>, press the letter <strong>F</strong> with <strong>left</strong> index finger.</p><p><strong>Ignore the written words</strong>. Respond as fast as possible while being correct. </p><div style='width: 900px;'><div style='float: left;'><img src='img/stimuli_stroop_happy.png'></img><p class='small'><strong>Press the H key for happy faces</strong></p></div><div class='float: right;'><img src='img/stimuli_stroop_fear.png'></img><p class='small'><strong>Press the F key for faces with fear</strong></p></div></div><p>If the screen turns blank, press <strong>SPACE</strong></p><p><strong>Press any key to begin.</strong></p>","32","html-keyboard-response","8","117729","0.0-8.0","3odt0h","Thu Feb 10 2022 00:12:41 GMT+0100 (CET)","2022","2","10","0","12","41","mw73","48","male","right","78","75","76","15","1","","","","","","","","",""
"null","<div style=""font-size:60px;"">+</div>","null","html-keyboard-response","9","120231","0.0-9.0-0.0","3odt0h","Thu Feb 10 2022 00:12:41 GMT+0100 (CET)","2022","2","10","0","12","41","mw73","48","male","right","78","75","76","15","1","","","","","fixation","","","",""
"882.0000000000146","img/image_stim_f.png","70","image-keyboard-response","10","121117","0.0-9.0-1.0","3odt0h","Thu Feb 10 2022 00:12:41 GMT+0100 (CET)","2022","2","10","0","12","41","mw73","48","male","right","78","75","76","15","1","","","","","test","fear","fear","f","true"
"null","<div style=""font-size:60px;"">+</div>","null","html-keyboard-response","11","123120","0.0-9.0-0.1","3odt0h","Thu Feb 10 2022 00:12:41 GMT+0100 (CET)","2022","2","10","0","12","41","mw73","48","male","right","78","75","76","15","1","","","","","fixation","","","",""
"649","img/image_stim_h_stroop.png","72","image-keyboard-response","12","123773","0.0-9.0-1.1","3odt0h","Thu Feb 10 2022 00:12:41 GMT+0100 (CET)","2022","2","10","0","12","41","mw73","48","male","right","78","75","76","15","1","","","","","test","happy","fear","h","true"
"null","<div style=""font-size:60px;"">+</div>","null","html-keyboard-response","13","125526","0.0-9.0-0.2","3odt0h","Thu Feb 10 2022 00:12:41 GMT+0100 (CET)","2022","2","10","0","12","41","mw73","48","male","right","78","75","76","15","1","","","","","fixation","","","",""
"685","img/image_stim_h.png","72","image-keyboard-response","14","126216","0.0-9.0-1.2","3odt0h","Thu Feb 10 2022 00:12:41 GMT+0100 (CET)","2022","2","10","0","12","41","mw73","48","male","right","78","75","76","15","1","","","","","test","happy","happy","h","true"
"null","<div style=""font-size:60px;"">+</div>","null","html-keyboard-response","15","126719","0.0-9.0-0.3","3odt0h","Thu Feb 10 2022 00:12:41 GMT+0100 (CET)","2022","2","10","0","12","41","mw73","48","male","right","78","75","76","15","1","","","","","fixation","","","",""
"854.9999999999854","img/image_stim_f_stroop.png","70","image-keyboard-response","16","127579","0.0-9.0-1.3","3odt0h","Thu Feb 10 2022 00:12:41 GMT+0100 (CET)","2022","2","10","0","12","41","mw73","48","male","right","78","75","76","15","1","","","","","test","fear","happy","f","true"
"null","<div style=""font-size:60px;"">+</div>","null","html-keyboard-response","17","128831","0.0-9.0-0.4","3odt0h","Thu Feb 10 2022 00:12:41 GMT+0100 (CET)","2022","2","10","0","12","41","mw73","48","male","right","78","75","76","15","1","","","","","fixation","","","",""
"738.9999999999854","img/image_stim_f_stroop.png","70","image-keyboard-response","18","129571","0.0-9.0-1.4","3odt0h","Thu Feb 10 2022 00:12:41 GMT+0100 (CET)","2022","2","10","0","12","41","mw73","48","male","right","78","75","76","15","1","","","","","test","fear","happy","f","true"
"null","<div style=""font-size:60px;"">+</div>","null","html-keyboard-response","19","130324","0.0-9.0-0.5","3odt0h","Thu Feb 10 2022 00:12:41 GMT+0100 (CET)","2022","2","10","0","12","41","mw73","48","male","right","78","75","76","15","1","","","","","fixation","","","",""
"697","img/image_stim_h_stroop.png","72","image-keyboard-response","20","131021","0.0-9.0-1.5","3odt0h","Thu Feb 10 2022 00:12:41 GMT+0100 (CET)","2022","2","10","0","12","41","mw73","48","male","right","78","75","76","15","1","","","","","test","happy","fear","h","true"
"null","<div style=""font-size:60px;"">+</div>","null","html-keyboard-response","21","132024","0.0-9.0-0.6","3odt0h","Thu Feb 10 2022 00:12:41 GMT+0100 (CET)","2022","2","10","0","12","41","mw73","48","male","right","78","75","76","15","1","","","","","fixation","","","",""
"684","img/image_stim_f.png","70","image-keyboard-response","22","132708","0.0-9.0-1.6","3odt0h","Thu Feb 10 2022 00:12:41 GMT+0100 (CET)","2022","2","10","0","12","41","mw73","48","male","right","78","75","76","15","1","","","","","test","fear","fear","f","true"
"null","<div style=""font-size:60px;"">+</div>","null","html-keyboard-response","23","134211","0.0-9.0-0.7","3odt0h","Thu Feb 10 2022 00:12:41 GMT+0100 (CET)","2022","2","10","0","12","41","mw73","48","male","right","78","75","76","15","1","","","","","fixation","","","",""
"571","img/image_stim_h.png","72","image-keyboard-response","24","134784","0.0-9.0-1.7","3odt0h","Thu Feb 10 2022 00:12:41 GMT+0100 (CET)","2022","2","10","0","12","41","mw73","48","male","right","78","75","76","15","1","","","","","test","happy","happy","h","true"
"null","<div style=""font-size:60px;"">+</div>","null","html-keyboard-response","25","136286","0.0-9.0-0.8","3odt0h","Thu Feb 10 2022 00:12:41 GMT+0100 (CET)","2022","2","10","0","12","41","mw73","48","male","right","78","75","76","15","1","","","","","fixation","","","",""
"675","img/image_stim_f_stroop.png","70","image-keyboard-response","26","136962","0.0-9.0-1.8","3odt0h","Thu Feb 10 2022 00:12:41 GMT+0100 (CET)","2022","2","10","0","12","41","mw73","48","male","right","78","75","76","15","1","","","","","test","fear","happy","f","true"
"null","<div style=""font-size:60px;"">+</div>","null","html-keyboard-response","27","138215","0.0-9.0-0.9","3odt0h","Thu Feb 10 2022 00:12:41 GMT+0100 (CET)","2022","2","10","0","12","41","mw73","48","male","right","78","75","76","15","1","","","","","fixation","","","",""
"922","img/image_stim_f.png","70","image-keyboard-response","28","139138","0.0-9.0-1.9","3odt0h","Thu Feb 10 2022 00:12:41 GMT+0100 (CET)","2022","2","10","0","12","41","mw73","48","male","right","78","75","76","15","1","","","","","test","fear","fear","f","true"
"null","<div style=""font-size:60px;"">+</div>","null","html-keyboard-response","29","140891","0.0-9.0-0.10","3odt0h","Thu Feb 10 2022 00:12:41 GMT+0100 (CET)","2022","2","10","0","12","41","mw73","48","male","right","78","75","76","15","1","","","","","fixation","","","",""
"596","img/image_stim_h_stroop.png","72","image-keyboard-response","30","141488","0.0-9.0-1.10","3odt0h","Thu Feb 10 2022 00:12:41 GMT+0100 (CET)","2022","2","10","0","12","41","mw73","48","male","right","78","75","76","15","1","","","","","test","happy","fear","h","true"
"null","<div style=""font-size:60px;"">+</div>","null","html-keyboard-response","31","142490","0.0-9.0-0.11","3odt0h","Thu Feb 10 2022 00:12:41 GMT+0100 (CET)","2022","2","10","0","12","41","mw73","48","male","right","78","75","76","15","1","","","","","fixation","","","",""
"751","img/image_stim_h.png","72","image-keyboard-response","32","143243","0.0-9.0-1.11","3odt0h","Thu Feb 10 2022 00:12:41 GMT+0100 (CET)","2022","2","10","0","12","41","mw73","48","male","right","78","75","76","15","1","","","","","test","happy","happy","h","true"
"null","<div style=""font-size:60px;"">+</div>","null","html-keyboard-response","33","143746","0.0-9.0-0.12","3odt0h","Thu Feb 10 2022 00:12:41 GMT+0100 (CET)","2022","2","10","0","12","41","mw73","48","male","right","78","75","76","15","1","","","","","fixation","","","",""
"634","img/image_stim_f.png","70","image-keyboard-response","34","144382","0.0-9.0-1.12","3odt0h","Thu Feb 10 2022 00:12:41 GMT+0100 (CET)","2022","2","10","0","12","41","mw73","48","male","right","78","75","76","15","1","","","","","test","fear","fear","f","true"
"null","<div style=""font-size:60px;"">+</div>","null","html-keyboard-response","35","145635","0.0-9.0-0.13","3odt0h","Thu Feb 10 2022 00:12:41 GMT+0100 (CET)","2022","2","10","0","12","41","mw73","48","male","right","78","75","76","15","1","","","","","fixation","","","",""
"589","img/image_stim_h.png","72","image-keyboard-response","36","146224","0.0-9.0-1.13","3odt0h","Thu Feb 10 2022 00:12:41 GMT+0100 (CET)","2022","2","10","0","12","41","mw73","48","male","right","78","75","76","15","1","","","","","test","happy","happy","h","true"
"null","<div style=""font-size:60px;"">+</div>","null","html-keyboard-response","37","146478","0.0-9.0-0.14","3odt0h","Thu Feb 10 2022 00:12:41 GMT+0100 (CET)","2022","2","10","0","12","41","mw73","48","male","right","78","75","76","15","1","","","","","fixation","","","",""
"680","img/image_stim_h_stroop.png","72","image-keyboard-response","38","147158","0.0-9.0-1.14","3odt0h","Thu Feb 10 2022 00:12:41 GMT+0100 (CET)","2022","2","10","0","12","41","mw73","48","male","right","78","75","76","15","1","","","","","test","happy","fear","h","true"
"null","<div style=""font-size:60px;"">+</div>","null","html-keyboard-response","39","148412","0.0-9.0-0.15","3odt0h","Thu Feb 10 2022 00:12:41 GMT+0100 (CET)","2022","2","10","0","12","41","mw73","48","male","right","78","75","76","15","1","","","","","fixation","","","",""
"783.0000000000291","img/image_stim_f_stroop.png","70","image-keyboard-response","40","149195","0.0-9.0-1.15","3odt0h","Thu Feb 10 2022 00:12:41 GMT+0100 (CET)","2022","2","10","0","12","41","mw73","48","male","right","78","75","76","15","1","","","","","test","fear","happy","f","true"
"null","<div style=""font-size:60px;"">+</div>","null","html-keyboard-response","41","150949","0.0-9.0-0.16","3odt0h","Thu Feb 10 2022 00:12:41 GMT+0100 (CET)","2022","2","10","0","12","41","mw73","48","male","right","78","75","76","15","1","","","","","fixation","","","",""
"679","img/image_stim_h.png","72","image-keyboard-response","42","151630","0.0-9.0-1.16","3odt0h","Thu Feb 10 2022 00:12:41 GMT+0100 (CET)","2022","2","10","0","12","41","mw73","48","male","right","78","75","76","15","1","","","","","test","happy","happy","h","true"
"null","<div style=""font-size:60px;"">+</div>","null","html-keyboard-response","43","152133","0.0-9.0-0.17","3odt0h","Thu Feb 10 2022 00:12:41 GMT+0100 (CET)","2022","2","10","0","12","41","mw73","48","male","right","78","75","76","15","1","","","","","fixation","","","",""
"704.0000000000291","img/image_stim_f_stroop.png","70","image-keyboard-response","44","152839","0.0-9.0-1.17","3odt0h","Thu Feb 10 2022 00:12:41 GMT+0100 (CET)","2022","2","10","0","12","41","mw73","48","male","right","78","75","76","15","1","","","","","test","fear","happy","f","true"
"null","<div style=""font-size:60px;"">+</div>","null","html-keyboard-response","45","154092","0.0-9.0-0.18","3odt0h","Thu Feb 10 2022 00:12:41 GMT+0100 (CET)","2022","2","10","0","12","41","mw73","48","male","right","78","75","76","15","1","","","","","fixation","","","",""
"706","img/image_stim_h_stroop.png","72","image-keyboard-response","46","154799","0.0-9.0-1.18","3odt0h","Thu Feb 10 2022 00:12:41 GMT+0100 (CET)","2022","2","10","0","12","41","mw73","48","male","right","78","75","76","15","1","","","","","test","happy","fear","h","true"
"null","<div style=""font-size:60px;"">+</div>","null","html-keyboard-response","47","156803","0.0-9.0-0.19","3odt0h","Thu Feb 10 2022 00:12:41 GMT+0100 (CET)","2022","2","10","0","12","41","mw73","48","male","right","78","75","76","15","1","","","","","fixation","","","",""
"726","img/image_stim_f.png","70","image-keyboard-response","48","157530","0.0-9.0-1.19","3odt0h","Thu Feb 10 2022 00:12:41 GMT+0100 (CET)","2022","2","10","0","12","41","mw73","48","male","right","78","75","76","15","1","","","","","test","fear","fear","f","true"
"null","<div style=""font-size:60px;"">+</div>","null","html-keyboard-response","49","158284","0.0-9.0-0.20","3odt0h","Thu Feb 10 2022 00:12:41 GMT+0100 (CET)","2022","2","10","0","12","41","mw73","48","male","right","78","75","76","15","1","","","","","fixation","","","",""
"616","img/image_stim_h.png","72","image-keyboard-response","50","158901","0.0-9.0-1.20","3odt0h","Thu Feb 10 2022 00:12:41 GMT+0100 (CET)","2022","2","10","0","12","41","mw73","48","male","right","78","75","76","15","1","","","","","test","happy","happy","h","true"
"null","<div style=""font-size:60px;"">+</div>","null","html-keyboard-response","51","159405","0.0-9.0-0.21","3odt0h","Thu Feb 10 2022 00:12:41 GMT+0100 (CET)","2022","2","10","0","12","41","mw73","48","male","right","78","75","76","15","1","","","","","fixation","","","",""
"703","img/image_stim_f_stroop.png","70","image-keyboard-response","52","160108","0.0-9.0-1.21","3odt0h","Thu Feb 10 2022 00:12:41 GMT+0100 (CET)","2022","2","10","0","12","41","mw73","48","male","right","78","75","76","15","1","","","","","test","fear","happy","f","true"
"null","<div style=""font-size:60px;"">+</div>","null","html-keyboard-response","53","160862","0.0-9.0-0.22","3odt0h","Thu Feb 10 2022 00:12:41 GMT+0100 (CET)","2022","2","10","0","12","41","mw73","48","male","right","78","75","76","15","1","","","","","fixation","","","",""
"657","img/image_stim_h_stroop.png","72","image-keyboard-response","54","161520","0.0-9.0-1.22","3odt0h","Thu Feb 10 2022 00:12:41 GMT+0100 (CET)","2022","2","10","0","12","41","mw73","48","male","right","78","75","76","15","1","","","","","test","happy","fear","h","true"
"null","<div style=""font-size:60px;"">+</div>","null","html-keyboard-response","55","162023","0.0-9.0-0.23","3odt0h","Thu Feb 10 2022 00:12:41 GMT+0100 (CET)","2022","2","10","0","12","41","mw73","48","male","right","78","75","76","15","1","","","","","fixation","","","",""
"662","img/image_stim_f.png","70","image-keyboard-response","56","162686","0.0-9.0-1.23","3odt0h","Thu Feb 10 2022 00:12:41 GMT+0100 (CET)","2022","2","10","0","12","41","mw73","48","male","right","78","75","76","15","1","","","","","test","fear","fear","f","true"
"null","<div style=""font-size:60px;"">+</div>","null","html-keyboard-response","57","164190","0.0-9.0-0.24","3odt0h","Thu Feb 10 2022 00:12:41 GMT+0100 (CET)","2022","2","10","0","12","41","mw73","48","male","right","78","75","76","15","1","","","","","fixation","","","",""
"658","img/image_stim_h.png","72","image-keyboard-response","58","164849","0.0-9.0-1.24","3odt0h","Thu Feb 10 2022 00:12:41 GMT+0100 (CET)","2022","2","10","0","12","41","mw73","48","male","right","78","75","76","15","1","","","","","test","happy","happy","h","true"
"null","<div style=""font-size:60px;"">+</div>","null","html-keyboard-response","59","165603","0.0-9.0-0.25","3odt0h","Thu Feb 10 2022 00:12:41 GMT+0100 (CET)","2022","2","10","0","12","41","mw73","48","male","right","78","75","76","15","1","","","","","fixation","","","",""
"631","img/image_stim_f_stroop.png","70","image-keyboard-response","60","166235","0.0-9.0-1.25","3odt0h","Thu Feb 10 2022 00:12:41 GMT+0100 (CET)","2022","2","10","0","12","41","mw73","48","male","right","78","75","76","15","1","","","","","test","fear","happy","f","true"
"null","<div style=""font-size:60px;"">+</div>","null","html-keyboard-response","61","168238","0.0-9.0-0.26","3odt0h","Thu Feb 10 2022 00:12:41 GMT+0100 (CET)","2022","2","10","0","12","41","mw73","48","male","right","78","75","76","15","1","","","","","fixation","","","",""
"561","img/image_stim_h_stroop.png","72","image-keyboard-response","62","168800","0.0-9.0-1.26","3odt0h","Thu Feb 10 2022 00:12:41 GMT+0100 (CET)","2022","2","10","0","12","41","mw73","48","male","right","78","75","76","15","1","","","","","test","happy","fear","h","true"
"null","<div style=""font-size:60px;"">+</div>","null","html-keyboard-response","63","170303","0.0-9.0-0.27","3odt0h","Thu Feb 10 2022 00:12:41 GMT+0100 (CET)","2022","2","10","0","12","41","mw73","48","male","right","78","75","76","15","1","","","","","fixation","","","",""
"718","img/image_stim_f.png","70","image-keyboard-response","64","171022","0.0-9.0-1.27","3odt0h","Thu Feb 10 2022 00:12:41 GMT+0100 (CET)","2022","2","10","0","12","41","mw73","48","male","right","78","75","76","15","1","","","","","test","fear","fear","f","true"
"null","<div style=""font-size:60px;"">+</div>","null","html-keyboard-response","65","172276","0.0-9.0-0.28","3odt0h","Thu Feb 10 2022 00:12:41 GMT+0100 (CET)","2022","2","10","0","12","41","mw73","48","male","right","78","75","76","15","1","","","","","fixation","","","",""
"633","img/image_stim_f_stroop.png","70","image-keyboard-response","66","172911","0.0-9.0-1.28","3odt0h","Thu Feb 10 2022 00:12:41 GMT+0100 (CET)","2022","2","10","0","12","41","mw73","48","male","right","78","75","76","15","1","","","","","test","fear","happy","f","true"
"null","<div style=""font-size:60px;"">+</div>","null","html-keyboard-response","67","173414","0.0-9.0-0.29","3odt0h","Thu Feb 10 2022 00:12:41 GMT+0100 (CET)","2022","2","10","0","12","41","mw73","48","male","right","78","75","76","15","1","","","","","fixation","","","",""
"798","img/image_stim_h.png","72","image-keyboard-response","68","174213","0.0-9.0-1.29","3odt0h","Thu Feb 10 2022 00:12:41 GMT+0100 (CET)","2022","2","10","0","12","41","mw73","48","male","right","78","75","76","15","1","","","","","test","happy","happy","h","true"
"null","<div style=""font-size:60px;"">+</div>","null","html-keyboard-response","69","174467","0.0-9.0-0.30","3odt0h","Thu Feb 10 2022 00:12:41 GMT+0100 (CET)","2022","2","10","0","12","41","mw73","48","male","right","78","75","76","15","1","","","","","fixation","","","",""
"715.0000000000291","img/image_stim_f.png","70","image-keyboard-response","70","175183","0.0-9.0-1.30","3odt0h","Thu Feb 10 2022 00:12:41 GMT+0100 (CET)","2022","2","10","0","12","41","mw73","48","male","right","78","75","76","15","1","","","","","test","fear","fear","f","true"
"null","<div style=""font-size:60px;"">+</div>","null","html-keyboard-response","71","177187","0.0-9.0-0.31","3odt0h","Thu Feb 10 2022 00:12:41 GMT+0100 (CET)","2022","2","10","0","12","41","mw73","48","male","right","78","75","76","15","1","","","","","fixation","","","",""
"583","img/image_stim_h_stroop.png","72","image-keyboard-response","72","177771","0.0-9.0-1.31","3odt0h","Thu Feb 10 2022 00:12:41 GMT+0100 (CET)","2022","2","10","0","12","41","mw73","48","male","right","78","75","76","15","1","","","","","test","happy","fear","h","true"
"null","<div style=""font-size:60px;"">+</div>","null","html-keyboard-response","73","179775","0.0-9.0-0.32","3odt0h","Thu Feb 10 2022 00:12:41 GMT+0100 (CET)","2022","2","10","0","12","41","mw73","48","male","right","78","75","76","15","1","","","","","fixation","","","",""
"620","img/image_stim_f.png","70","image-keyboard-response","74","180396","0.0-9.0-1.32","3odt0h","Thu Feb 10 2022 00:12:41 GMT+0100 (CET)","2022","2","10","0","12","41","mw73","48","male","right","78","75","76","15","1","","","","","test","fear","fear","f","true"
"null","<div style=""font-size:60px;"">+</div>","null","html-keyboard-response","75","182149","0.0-9.0-0.33","3odt0h","Thu Feb 10 2022 00:12:41 GMT+0100 (CET)","2022","2","10","0","12","41","mw73","48","male","right","78","75","76","15","1","","","","","fixation","","","",""
"673","img/image_stim_h.png","72","image-keyboard-response","76","182823","0.0-9.0-1.33","3odt0h","Thu Feb 10 2022 00:12:41 GMT+0100 (CET)","2022","2","10","0","12","41","mw73","48","male","right","78","75","76","15","1","","","","","test","happy","happy","h","true"
"null","<div style=""font-size:60px;"">+</div>","null","html-keyboard-response","77","183077","0.0-9.0-0.34","3odt0h","Thu Feb 10 2022 00:12:41 GMT+0100 (CET)","2022","2","10","0","12","41","mw73","48","male","right","78","75","76","15","1","","","","","fixation","","","",""
"771","img/image_stim_h_stroop.png","72","image-keyboard-response","78","183850","0.0-9.0-1.34","3odt0h","Thu Feb 10 2022 00:12:41 GMT+0100 (CET)","2022","2","10","0","12","41","mw73","48","male","right","78","75","76","15","1","","","","","test","happy","fear","h","true"
"null","<div style=""font-size:60px;"">+</div>","null","html-keyboard-response","79","185104","0.0-9.0-0.35","3odt0h","Thu Feb 10 2022 00:12:41 GMT+0100 (CET)","2022","2","10","0","12","41","mw73","48","male","right","78","75","76","15","1","","","","","fixation","","","",""
"591","img/image_stim_f_stroop.png","70","image-keyboard-response","80","185697","0.0-9.0-1.35","3odt0h","Thu Feb 10 2022 00:12:41 GMT+0100 (CET)","2022","2","10","0","12","41","mw73","48","male","right","78","75","76","15","1","","","","","test","fear","happy","f","true"
