"rt","stimulus","key_press","trial_type","trial_index","time_elapsed","internal_node_id","exp_id","Time","year","month","date","hour","minute","seconds","id","age","Gender","Handedness","mood","fresh","hunger","H_since_Sleep","H_since_Eat","responses","question_order","slider_start","response","test_part","face","word","correct_response","correct"
"18027.270000000044","<p>Welcome to this experiment on daily rhythms and cognition.</p><p>First you will be asked some questions about yourself.</p><p>Then a short experiment will measure your response time.</p><p>Take the test at different times of the day/night.</p><p>The test is anonymous, but comparing your data across time is important.</p><p>Therefore, please make up and remember a personal ID (two letters+ two numbers).</p><p>Use this ID whenever taking the test.</p><p><strong>Press any key to begin.</strong></p>","32","html-keyboard-response","0","18033","0.0-0.0","o6b18s","Sun Feb 14 2021 12:36:39 GMT+0100 (Central European Standard Time)","2021","2","14","12","36","39","SV06","24","male","left,No difference","60","60","100","1","1","","","","","","","","",""
"37256.63000000031","","","survey-text","1","55304","0.0-1.0","o6b18s","Sun Feb 14 2021 12:36:39 GMT+0100 (Central European Standard Time)","2021","2","14","12","36","39","SV06","24","male","left,No difference","60","60","100","1","1","{""Q0"":""SV06""}","","","","","","","",""
"4716.515000000072","","","survey-text","2","60028","0.0-2.0","o6b18s","Sun Feb 14 2021 12:36:39 GMT+0100 (Central European Standard Time)","2021","2","14","12","36","39","SV06","24","male","left,No difference","60","60","100","1","1","{""Q0"":""24""}","","","","","","","",""
"11262.224999999948","","","survey-multi-select","3","71295","0.0-3.0","o6b18s","Sun Feb 14 2021 12:36:39 GMT+0100 (Central European Standard Time)","2021","2","14","12","36","39","SV06","24","male","left,No difference","60","60","100","1","1","{""Gender"":[""male""],""Hand"":[""left"",""No difference""]}","[0,1]","","","","","","",""
"5764.134999999893","<p>How Sad/Angry or Happy are you right now?</p>","","html-slider-response","4","77079","0.0-4.0","o6b18s","Sun Feb 14 2021 12:36:39 GMT+0100 (Central European Standard Time)","2021","2","14","12","36","39","SV06","24","male","left,No difference","60","60","100","1","1","","","50","60","","","","",""
"6678.314999999668","<p>How Tired/Sleepy/Distracted or Fresh/Awake/Alert are you right now?</p>","","html-slider-response","5","83760","0.0-5.0","o6b18s","Sun Feb 14 2021 12:36:39 GMT+0100 (Central European Standard Time)","2021","2","14","12","36","39","SV06","24","male","left,No difference","60","60","100","1","1","","","50","60","","","","",""
"3910.9450000000797","<p>How Hungry or Satiated are you right now?</p>","","html-slider-response","6","87673","0.0-6.0","o6b18s","Sun Feb 14 2021 12:36:39 GMT+0100 (Central European Standard Time)","2021","2","14","12","36","39","SV06","24","male","left,No difference","60","60","100","1","1","","","50","100","","","","",""
"11113.659999999974","","","survey-multi-select","7","98824","0.0-7.0","o6b18s","Sun Feb 14 2021 12:36:39 GMT+0100 (Central European Standard Time)","2021","2","14","12","36","39","SV06","24","male","left,No difference","60","60","100","1","1","{""Sleep"":[""1""],""Eat"":[""1""]}","[0,1]","","","","","","",""
"30060.50000000006","<p>In this experiment, a face and a word will appear in the center of the screen.</p><p>If the face is <strong>happy</strong>, press the letter <strong>H</strong> with <strong>right</strong> index finger.</p><p>If the face is <strong>fearful</strong>, press the letter <strong>F</strong> with <strong>left</strong> index finger.</p><p><strong>Ignore the written words</strong>. Respond as fast as possible while being correct. </p><div style='width: 900px;'><div style='float: left;'><img src='img/stimuli_stroop_happy.png'></img><p class='small'><strong>Press the H key for happy faces</strong></p></div><div class='float: right;'><img src='img/stimuli_stroop_fear.png'></img><p class='small'><strong>Press the F key for faces with fear</strong></p></div></div><p>If the screen turns blank, press <strong>SPACE</strong></p><p><strong>Press any key to begin.</strong></p>","32","html-keyboard-response","8","128904","0.0-8.0","o6b18s","Sun Feb 14 2021 12:36:39 GMT+0100 (Central European Standard Time)","2021","2","14","12","36","39","SV06","24","male","left,No difference","60","60","100","1","1","","","","","","","","",""
"null","<div style=""font-size:60px;"">+</div>","null","html-keyboard-response","9","131671","0.0-9.0-0.0","o6b18s","Sun Feb 14 2021 12:36:39 GMT+0100 (Central European Standard Time)","2021","2","14","12","36","39","SV06","24","male","left,No difference","60","60","100","1","1","","","","","fixation","","","",""
"1485.604999999865","img/image_stim_f_stroop.png","70","image-keyboard-response","10","133177","0.0-9.0-1.0","o6b18s","Sun Feb 14 2021 12:36:39 GMT+0100 (Central European Standard Time)","2021","2","14","12","36","39","SV06","24","male","left,No difference","60","60","100","1","1","","","","","test","fear","happy","f","true"
"null","<div style=""font-size:60px;"">+</div>","null","html-keyboard-response","11","133945","0.0-9.0-0.1","o6b18s","Sun Feb 14 2021 12:36:39 GMT+0100 (Central European Standard Time)","2021","2","14","12","36","39","SV06","24","male","left,No difference","60","60","100","1","1","","","","","fixation","","","",""
"604.6200000000827","img/image_stim_f.png","70","image-keyboard-response","12","134552","0.0-9.0-1.1","o6b18s","Sun Feb 14 2021 12:36:39 GMT+0100 (Central European Standard Time)","2021","2","14","12","36","39","SV06","24","male","left,No difference","60","60","100","1","1","","","","","test","fear","fear","f","true"
"null","<div style=""font-size:60px;"">+</div>","null","html-keyboard-response","13","135307","0.0-9.0-0.2","o6b18s","Sun Feb 14 2021 12:36:39 GMT+0100 (Central European Standard Time)","2021","2","14","12","36","39","SV06","24","male","left,No difference","60","60","100","1","1","","","","","fixation","","","",""
"430.1850000001723","img/image_stim_h_stroop.png","72","image-keyboard-response","14","135739","0.0-9.0-1.2","o6b18s","Sun Feb 14 2021 12:36:39 GMT+0100 (Central European Standard Time)","2021","2","14","12","36","39","SV06","24","male","left,No difference","60","60","100","1","1","","","","","test","happy","fear","h","true"
"null","<div style=""font-size:60px;"">+</div>","null","html-keyboard-response","15","136752","0.0-9.0-0.3","o6b18s","Sun Feb 14 2021 12:36:39 GMT+0100 (Central European Standard Time)","2021","2","14","12","36","39","SV06","24","male","left,No difference","60","60","100","1","1","","","","","fixation","","","",""
"559.0550000001676","img/image_stim_h.png","72","image-keyboard-response","16","137313","0.0-9.0-1.3","o6b18s","Sun Feb 14 2021 12:36:39 GMT+0100 (Central European Standard Time)","2021","2","14","12","36","39","SV06","24","male","left,No difference","60","60","100","1","1","","","","","test","happy","happy","h","true"
"null","<div style=""font-size:60px;"">+</div>","null","html-keyboard-response","17","139329","0.0-9.0-0.4","o6b18s","Sun Feb 14 2021 12:36:39 GMT+0100 (Central European Standard Time)","2021","2","14","12","36","39","SV06","24","male","left,No difference","60","60","100","1","1","","","","","fixation","","","",""
"480.23999999987427","img/image_stim_h_stroop.png","72","image-keyboard-response","18","139812","0.0-9.0-1.4","o6b18s","Sun Feb 14 2021 12:36:39 GMT+0100 (Central European Standard Time)","2021","2","14","12","36","39","SV06","24","male","left,No difference","60","60","100","1","1","","","","","test","happy","fear","h","true"
"null","<div style=""font-size:60px;"">+</div>","null","html-keyboard-response","19","141579","0.0-9.0-0.5","o6b18s","Sun Feb 14 2021 12:36:39 GMT+0100 (Central European Standard Time)","2021","2","14","12","36","39","SV06","24","male","left,No difference","60","60","100","1","1","","","","","fixation","","","",""
"686.0449999999255","img/image_stim_f.png","70","image-keyboard-response","20","142266","0.0-9.0-1.5","o6b18s","Sun Feb 14 2021 12:36:39 GMT+0100 (Central European Standard Time)","2021","2","14","12","36","39","SV06","24","male","left,No difference","60","60","100","1","1","","","","","test","fear","fear","f","true"
"null","<div style=""font-size:60px;"">+</div>","null","html-keyboard-response","21","144279","0.0-9.0-0.6","o6b18s","Sun Feb 14 2021 12:36:39 GMT+0100 (Central European Standard Time)","2021","2","14","12","36","39","SV06","24","male","left,No difference","60","60","100","1","1","","","","","fixation","","","",""
"556.6100000000733","img/image_stim_f_stroop.png","72","image-keyboard-response","22","144838","0.0-9.0-1.6","o6b18s","Sun Feb 14 2021 12:36:39 GMT+0100 (Central European Standard Time)","2021","2","14","12","36","39","SV06","24","male","left,No difference","60","60","100","1","1","","","","","test","fear","happy","f","false"
"null","<div style=""font-size:60px;"">+</div>","null","html-keyboard-response","23","146610","0.0-9.0-0.7","o6b18s","Sun Feb 14 2021 12:36:39 GMT+0100 (Central European Standard Time)","2021","2","14","12","36","39","SV06","24","male","left,No difference","60","60","100","1","1","","","","","fixation","","","",""
"536.105000000156","img/image_stim_h.png","72","image-keyboard-response","24","147148","0.0-9.0-1.7","o6b18s","Sun Feb 14 2021 12:36:39 GMT+0100 (Central European Standard Time)","2021","2","14","12","36","39","SV06","24","male","left,No difference","60","60","100","1","1","","","","","test","happy","happy","h","true"
"null","<div style=""font-size:60px;"">+</div>","null","html-keyboard-response","25","148411","0.0-9.0-0.8","o6b18s","Sun Feb 14 2021 12:36:39 GMT+0100 (Central European Standard Time)","2021","2","14","12","36","39","SV06","24","male","left,No difference","60","60","100","1","1","","","","","fixation","","","",""
"561.1699999999546","img/image_stim_h.png","72","image-keyboard-response","26","148974","0.0-9.0-1.8","o6b18s","Sun Feb 14 2021 12:36:39 GMT+0100 (Central European Standard Time)","2021","2","14","12","36","39","SV06","24","male","left,No difference","60","60","100","1","1","","","","","test","happy","happy","h","true"
"null","<div style=""font-size:60px;"">+</div>","null","html-keyboard-response","27","149981","0.0-9.0-0.9","o6b18s","Sun Feb 14 2021 12:36:39 GMT+0100 (Central European Standard Time)","2021","2","14","12","36","39","SV06","24","male","left,No difference","60","60","100","1","1","","","","","fixation","","","",""
"507.21499999961816","img/image_stim_h_stroop.png","72","image-keyboard-response","28","150490","0.0-9.0-1.9","o6b18s","Sun Feb 14 2021 12:36:39 GMT+0100 (Central European Standard Time)","2021","2","14","12","36","39","SV06","24","male","left,No difference","60","60","100","1","1","","","","","test","happy","fear","h","true"
"null","<div style=""font-size:60px;"">+</div>","null","html-keyboard-response","29","152503","0.0-9.0-0.10","o6b18s","Sun Feb 14 2021 12:36:39 GMT+0100 (Central European Standard Time)","2021","2","14","12","36","39","SV06","24","male","left,No difference","60","60","100","1","1","","","","","fixation","","","",""
"466.77499999984866","img/image_stim_f_stroop.png","70","image-keyboard-response","30","152971","0.0-9.0-1.10","o6b18s","Sun Feb 14 2021 12:36:39 GMT+0100 (Central European Standard Time)","2021","2","14","12","36","39","SV06","24","male","left,No difference","60","60","100","1","1","","","","","test","fear","happy","f","true"
"null","<div style=""font-size:60px;"">+</div>","null","html-keyboard-response","31","154263","0.0-9.0-0.11","o6b18s","Sun Feb 14 2021 12:36:39 GMT+0100 (Central European Standard Time)","2021","2","14","12","36","39","SV06","24","male","left,No difference","60","60","100","1","1","","","","","fixation","","","",""
"472.60499999992317","img/image_stim_f.png","70","image-keyboard-response","32","154738","0.0-9.0-1.11","o6b18s","Sun Feb 14 2021 12:36:39 GMT+0100 (Central European Standard Time)","2021","2","14","12","36","39","SV06","24","male","left,No difference","60","60","100","1","1","","","","","test","fear","fear","f","true"
"null","<div style=""font-size:60px;"">+</div>","null","html-keyboard-response","33","155997","0.0-9.0-0.12","o6b18s","Sun Feb 14 2021 12:36:39 GMT+0100 (Central European Standard Time)","2021","2","14","12","36","39","SV06","24","male","left,No difference","60","60","100","1","1","","","","","fixation","","","",""
"491.98500000013155","img/image_stim_f_stroop.png","72","image-keyboard-response","34","156491","0.0-9.0-1.12","o6b18s","Sun Feb 14 2021 12:36:39 GMT+0100 (Central European Standard Time)","2021","2","14","12","36","39","SV06","24","male","left,No difference","60","60","100","1","1","","","","","test","fear","happy","f","false"
"null","<div style=""font-size:60px;"">+</div>","null","html-keyboard-response","35","156997","0.0-9.0-0.13","o6b18s","Sun Feb 14 2021 12:36:39 GMT+0100 (Central European Standard Time)","2021","2","14","12","36","39","SV06","24","male","left,No difference","60","60","100","1","1","","","","","fixation","","","",""
"1035.155000000028","img/image_stim_h_stroop.png","72","image-keyboard-response","36","158034","0.0-9.0-1.13","o6b18s","Sun Feb 14 2021 12:36:39 GMT+0100 (Central European Standard Time)","2021","2","14","12","36","39","SV06","24","male","left,No difference","60","60","100","1","1","","","","","test","happy","fear","h","true"
"null","<div style=""font-size:60px;"">+</div>","null","html-keyboard-response","37","158300","0.0-9.0-0.14","o6b18s","Sun Feb 14 2021 12:36:39 GMT+0100 (Central European Standard Time)","2021","2","14","12","36","39","SV06","24","male","left,No difference","60","60","100","1","1","","","","","fixation","","","",""
"727.5899999999674","img/image_stim_f.png","70","image-keyboard-response","38","159029","0.0-9.0-1.14","o6b18s","Sun Feb 14 2021 12:36:39 GMT+0100 (Central European Standard Time)","2021","2","14","12","36","39","SV06","24","male","left,No difference","60","60","100","1","1","","","","","test","fear","fear","f","true"
"null","<div style=""font-size:60px;"">+</div>","null","html-keyboard-response","39","159293","0.0-9.0-0.15","o6b18s","Sun Feb 14 2021 12:36:39 GMT+0100 (Central European Standard Time)","2021","2","14","12","36","39","SV06","24","male","left,No difference","60","60","100","1","1","","","","","fixation","","","",""
"741.704999999929","img/image_stim_h.png","72","image-keyboard-response","40","160037","0.0-9.0-1.15","o6b18s","Sun Feb 14 2021 12:36:39 GMT+0100 (Central European Standard Time)","2021","2","14","12","36","39","SV06","24","male","left,No difference","60","60","100","1","1","","","","","test","happy","happy","h","true"
"null","<div style=""font-size:60px;"">+</div>","null","html-keyboard-response","41","161053","0.0-9.0-0.16","o6b18s","Sun Feb 14 2021 12:36:39 GMT+0100 (Central European Standard Time)","2021","2","14","12","36","39","SV06","24","male","left,No difference","60","60","100","1","1","","","","","fixation","","","",""
"605.214999999589","img/image_stim_f_stroop.png","72","image-keyboard-response","42","161660","0.0-9.0-1.16","o6b18s","Sun Feb 14 2021 12:36:39 GMT+0100 (Central European Standard Time)","2021","2","14","12","36","39","SV06","24","male","left,No difference","60","60","100","1","1","","","","","test","fear","happy","f","false"
"null","<div style=""font-size:60px;"">+</div>","null","html-keyboard-response","43","163166","0.0-9.0-0.17","o6b18s","Sun Feb 14 2021 12:36:39 GMT+0100 (Central European Standard Time)","2021","2","14","12","36","39","SV06","24","male","left,No difference","60","60","100","1","1","","","","","fixation","","","",""
"570.189999999915","img/image_stim_h_stroop.png","72","image-keyboard-response","44","163738","0.0-9.0-1.17","o6b18s","Sun Feb 14 2021 12:36:39 GMT+0100 (Central European Standard Time)","2021","2","14","12","36","39","SV06","24","male","left,No difference","60","60","100","1","1","","","","","test","happy","fear","h","true"
"null","<div style=""font-size:60px;"">+</div>","null","html-keyboard-response","45","164008","0.0-9.0-0.18","o6b18s","Sun Feb 14 2021 12:36:39 GMT+0100 (Central European Standard Time)","2021","2","14","12","36","39","SV06","24","male","left,No difference","60","60","100","1","1","","","","","fixation","","","",""
"600.7700000000186","img/image_stim_h.png","72","image-keyboard-response","46","164610","0.0-9.0-1.18","o6b18s","Sun Feb 14 2021 12:36:39 GMT+0100 (Central European Standard Time)","2021","2","14","12","36","39","SV06","24","male","left,No difference","60","60","100","1","1","","","","","test","happy","happy","h","true"
"null","<div style=""font-size:60px;"">+</div>","null","html-keyboard-response","47","164871","0.0-9.0-0.19","o6b18s","Sun Feb 14 2021 12:36:39 GMT+0100 (Central European Standard Time)","2021","2","14","12","36","39","SV06","24","male","left,No difference","60","60","100","1","1","","","","","fixation","","","",""
"617.9449999999488","img/image_stim_f.png","70","image-keyboard-response","48","165491","0.0-9.0-1.19","o6b18s","Sun Feb 14 2021 12:36:39 GMT+0100 (Central European Standard Time)","2021","2","14","12","36","39","SV06","24","male","left,No difference","60","60","100","1","1","","","","","test","fear","fear","f","true"
"null","<div style=""font-size:60px;"">+</div>","null","html-keyboard-response","49","167505","0.0-9.0-0.20","o6b18s","Sun Feb 14 2021 12:36:39 GMT+0100 (Central European Standard Time)","2021","2","14","12","36","39","SV06","24","male","left,No difference","60","60","100","1","1","","","","","fixation","","","",""
"638.5799999998126","img/image_stim_h.png","72","image-keyboard-response","50","168146","0.0-9.0-1.20","o6b18s","Sun Feb 14 2021 12:36:39 GMT+0100 (Central European Standard Time)","2021","2","14","12","36","39","SV06","24","male","left,No difference","60","60","100","1","1","","","","","test","happy","happy","h","true"
"null","<div style=""font-size:60px;"">+</div>","null","html-keyboard-response","51","169154","0.0-9.0-0.21","o6b18s","Sun Feb 14 2021 12:36:39 GMT+0100 (Central European Standard Time)","2021","2","14","12","36","39","SV06","24","male","left,No difference","60","60","100","1","1","","","","","fixation","","","",""
"597.5099999996019","img/image_stim_f_stroop.png","70","image-keyboard-response","52","169753","0.0-9.0-1.21","o6b18s","Sun Feb 14 2021 12:36:39 GMT+0100 (Central European Standard Time)","2021","2","14","12","36","39","SV06","24","male","left,No difference","60","60","100","1","1","","","","","test","fear","happy","f","true"
"null","<div style=""font-size:60px;"">+</div>","null","html-keyboard-response","53","171019","0.0-9.0-0.22","o6b18s","Sun Feb 14 2021 12:36:39 GMT+0100 (Central European Standard Time)","2021","2","14","12","36","39","SV06","24","male","left,No difference","60","60","100","1","1","","","","","fixation","","","",""
"434.88500000012573","img/image_stim_f.png","70","image-keyboard-response","54","171456","0.0-9.0-1.22","o6b18s","Sun Feb 14 2021 12:36:39 GMT+0100 (Central European Standard Time)","2021","2","14","12","36","39","SV06","24","male","left,No difference","60","60","100","1","1","","","","","test","fear","fear","f","true"
"null","<div style=""font-size:60px;"">+</div>","null","html-keyboard-response","55","173222","0.0-9.0-0.23","o6b18s","Sun Feb 14 2021 12:36:39 GMT+0100 (Central European Standard Time)","2021","2","14","12","36","39","SV06","24","male","left,No difference","60","60","100","1","1","","","","","fixation","","","",""
"559.375000000291","img/image_stim_h_stroop.png","72","image-keyboard-response","56","173784","0.0-9.0-1.23","o6b18s","Sun Feb 14 2021 12:36:39 GMT+0100 (Central European Standard Time)","2021","2","14","12","36","39","SV06","24","male","left,No difference","60","60","100","1","1","","","","","test","happy","fear","h","true"
"null","<div style=""font-size:60px;"">+</div>","null","html-keyboard-response","57","175302","0.0-9.0-0.24","o6b18s","Sun Feb 14 2021 12:36:39 GMT+0100 (Central European Standard Time)","2021","2","14","12","36","39","SV06","24","male","left,No difference","60","60","100","1","1","","","","","fixation","","","",""
"558.3299999998417","img/image_stim_h_stroop.png","72","image-keyboard-response","58","175861","0.0-9.0-1.24","o6b18s","Sun Feb 14 2021 12:36:39 GMT+0100 (Central European Standard Time)","2021","2","14","12","36","39","SV06","24","male","left,No difference","60","60","100","1","1","","","","","test","happy","fear","h","true"
"null","<div style=""font-size:60px;"">+</div>","null","html-keyboard-response","59","177869","0.0-9.0-0.25","o6b18s","Sun Feb 14 2021 12:36:39 GMT+0100 (Central European Standard Time)","2021","2","14","12","36","39","SV06","24","male","left,No difference","60","60","100","1","1","","","","","fixation","","","",""
"635.2249999999767","img/image_stim_f_stroop.png","70","image-keyboard-response","60","178506","0.0-9.0-1.25","o6b18s","Sun Feb 14 2021 12:36:39 GMT+0100 (Central European Standard Time)","2021","2","14","12","36","39","SV06","24","male","left,No difference","60","60","100","1","1","","","","","test","fear","happy","f","true"
"null","<div style=""font-size:60px;"">+</div>","null","html-keyboard-response","61","179512","0.0-9.0-0.26","o6b18s","Sun Feb 14 2021 12:36:39 GMT+0100 (Central European Standard Time)","2021","2","14","12","36","39","SV06","24","male","left,No difference","60","60","100","1","1","","","","","fixation","","","",""
"569.8549999997485","img/image_stim_h.png","72","image-keyboard-response","62","180083","0.0-9.0-1.26","o6b18s","Sun Feb 14 2021 12:36:39 GMT+0100 (Central European Standard Time)","2021","2","14","12","36","39","SV06","24","male","left,No difference","60","60","100","1","1","","","","","test","happy","happy","h","true"
"null","<div style=""font-size:60px;"">+</div>","null","html-keyboard-response","63","181353","0.0-9.0-0.27","o6b18s","Sun Feb 14 2021 12:36:39 GMT+0100 (Central European Standard Time)","2021","2","14","12","36","39","SV06","24","male","left,No difference","60","60","100","1","1","","","","","fixation","","","",""
"400.4199999999255","img/image_stim_f.png","70","image-keyboard-response","64","181755","0.0-9.0-1.27","o6b18s","Sun Feb 14 2021 12:36:39 GMT+0100 (Central European Standard Time)","2021","2","14","12","36","39","SV06","24","male","left,No difference","60","60","100","1","1","","","","","test","fear","fear","f","true"
"null","<div style=""font-size:60px;"">+</div>","null","html-keyboard-response","65","182771","0.0-9.0-0.28","o6b18s","Sun Feb 14 2021 12:36:39 GMT+0100 (Central European Standard Time)","2021","2","14","12","36","39","SV06","24","male","left,No difference","60","60","100","1","1","","","","","fixation","","","",""
"501.1999999996915","img/image_stim_h_stroop.png","72","image-keyboard-response","66","183275","0.0-9.0-1.28","o6b18s","Sun Feb 14 2021 12:36:39 GMT+0100 (Central European Standard Time)","2021","2","14","12","36","39","SV06","24","male","left,No difference","60","60","100","1","1","","","","","test","happy","fear","h","true"
"null","<div style=""font-size:60px;"">+</div>","null","html-keyboard-response","67","184782","0.0-9.0-0.29","o6b18s","Sun Feb 14 2021 12:36:39 GMT+0100 (Central European Standard Time)","2021","2","14","12","36","39","SV06","24","male","left,No difference","60","60","100","1","1","","","","","fixation","","","",""
"367.54999999995925","img/image_stim_f.png","70","image-keyboard-response","68","185152","0.0-9.0-1.29","o6b18s","Sun Feb 14 2021 12:36:39 GMT+0100 (Central European Standard Time)","2021","2","14","12","36","39","SV06","24","male","left,No difference","60","60","100","1","1","","","","","test","fear","fear","f","true"
"null","<div style=""font-size:60px;"">+</div>","null","html-keyboard-response","69","186417","0.0-9.0-0.30","o6b18s","Sun Feb 14 2021 12:36:39 GMT+0100 (Central European Standard Time)","2021","2","14","12","36","39","SV06","24","male","left,No difference","60","60","100","1","1","","","","","fixation","","","",""
"425.0150000002759","img/image_stim_f_stroop.png","70","image-keyboard-response","70","186844","0.0-9.0-1.30","o6b18s","Sun Feb 14 2021 12:36:39 GMT+0100 (Central European Standard Time)","2021","2","14","12","36","39","SV06","24","male","left,No difference","60","60","100","1","1","","","","","test","fear","happy","f","true"
"null","<div style=""font-size:60px;"">+</div>","null","html-keyboard-response","71","188851","0.0-9.0-0.31","o6b18s","Sun Feb 14 2021 12:36:39 GMT+0100 (Central European Standard Time)","2021","2","14","12","36","39","SV06","24","male","left,No difference","60","60","100","1","1","","","","","fixation","","","",""
"473.2650000000722","img/image_stim_h.png","72","image-keyboard-response","72","189326","0.0-9.0-1.31","o6b18s","Sun Feb 14 2021 12:36:39 GMT+0100 (Central European Standard Time)","2021","2","14","12","36","39","SV06","24","male","left,No difference","60","60","100","1","1","","","","","test","happy","happy","h","true"
"null","<div style=""font-size:60px;"">+</div>","null","html-keyboard-response","73","189838","0.0-9.0-0.32","o6b18s","Sun Feb 14 2021 12:36:39 GMT+0100 (Central European Standard Time)","2021","2","14","12","36","39","SV06","24","male","left,No difference","60","60","100","1","1","","","","","fixation","","","",""
"695.2049999999872","img/image_stim_h_stroop.png","70","image-keyboard-response","74","190536","0.0-9.0-1.32","o6b18s","Sun Feb 14 2021 12:36:39 GMT+0100 (Central European Standard Time)","2021","2","14","12","36","39","SV06","24","male","left,No difference","60","60","100","1","1","","","","","test","happy","fear","h","false"
"null","<div style=""font-size:60px;"">+</div>","null","html-keyboard-response","75","192047","0.0-9.0-0.33","o6b18s","Sun Feb 14 2021 12:36:39 GMT+0100 (Central European Standard Time)","2021","2","14","12","36","39","SV06","24","male","left,No difference","60","60","100","1","1","","","","","fixation","","","",""
"507.35000000029686","img/image_stim_f_stroop.png","70","image-keyboard-response","76","192556","0.0-9.0-1.33","o6b18s","Sun Feb 14 2021 12:36:39 GMT+0100 (Central European Standard Time)","2021","2","14","12","36","39","SV06","24","male","left,No difference","60","60","100","1","1","","","","","test","fear","happy","f","true"
"null","<div style=""font-size:60px;"">+</div>","null","html-keyboard-response","77","194327","0.0-9.0-0.34","o6b18s","Sun Feb 14 2021 12:36:39 GMT+0100 (Central European Standard Time)","2021","2","14","12","36","39","SV06","24","male","left,No difference","60","60","100","1","1","","","","","fixation","","","",""
"552.5999999999767","img/image_stim_f.png","70","image-keyboard-response","78","194881","0.0-9.0-1.34","o6b18s","Sun Feb 14 2021 12:36:39 GMT+0100 (Central European Standard Time)","2021","2","14","12","36","39","SV06","24","male","left,No difference","60","60","100","1","1","","","","","test","fear","fear","f","true"
"null","<div style=""font-size:60px;"">+</div>","null","html-keyboard-response","79","196140","0.0-9.0-0.35","o6b18s","Sun Feb 14 2021 12:36:39 GMT+0100 (Central European Standard Time)","2021","2","14","12","36","39","SV06","24","male","left,No difference","60","60","100","1","1","","","","","fixation","","","",""
"482.3699999997334","img/image_stim_h.png","72","image-keyboard-response","80","196624","0.0-9.0-1.35","o6b18s","Sun Feb 14 2021 12:36:39 GMT+0100 (Central European Standard Time)","2021","2","14","12","36","39","SV06","24","male","left,No difference","60","60","100","1","1","","","","","test","happy","happy","h","true"
