"rt","stimulus","key_press","trial_type","trial_index","time_elapsed","internal_node_id","exp_id","Time","year","month","date","hour","minute","seconds","id","age","Gender","Handedness","mood","fresh","hunger","H_since_Sleep","H_since_Eat","responses","question_order","slider_start","response","test_part","face","word","correct_response","correct"
"1496.300000011921","<p>Welcome to this experiment on daily rhythms and cognition.</p><p>First you will be asked some questions about yourself.</p><p>Then a short experiment will measure your response time.</p><p>Take the test at different times of the day/night.</p><p>The test is anonymous, but comparing your data across time is important.</p><p>Therefore, please make up and remember a personal ID (two letters+ two numbers).</p><p>Use this ID whenever taking the test.</p><p><strong>Press any key to begin.</strong></p>","32","html-keyboard-response","0","1498","0.0-0.0","p7tle2","Thu Feb 10 2022 14:28:09 GMT+0100 (Centraleuropæisk normaltid)","2022","2","10","14","28","9","jt15","22","male","right","30","43","0","6","6","","","","","","","","",""
"12920","","","survey-text","1","14422","0.0-1.0","p7tle2","Thu Feb 10 2022 14:28:09 GMT+0100 (Centraleuropæisk normaltid)","2022","2","10","14","28","9","jt15","22","male","right","30","43","0","6","6","{""Q0"":""jt15""}","","","","","","","",""
"3026.699999988079","","","survey-text","2","17452","0.0-2.0","p7tle2","Thu Feb 10 2022 14:28:09 GMT+0100 (Centraleuropæisk normaltid)","2022","2","10","14","28","9","jt15","22","male","right","30","43","0","6","6","{""Q0"":""22""}","","","","","","","",""
"4771.300000011921","","","survey-multi-select","3","22230","0.0-3.0","p7tle2","Thu Feb 10 2022 14:28:09 GMT+0100 (Centraleuropæisk normaltid)","2022","2","10","14","28","9","jt15","22","male","right","30","43","0","6","6","{""Gender"":[""male""],""Hand"":[""right""]}","[0,1]","","","","","","",""
"7820.199999988079","<p>How Sad/Angry or Happy are you right now?</p>","","html-slider-response","4","30054","0.0-4.0","p7tle2","Thu Feb 10 2022 14:28:09 GMT+0100 (Centraleuropæisk normaltid)","2022","2","10","14","28","9","jt15","22","male","right","30","43","0","6","6","","","50","30","","","","",""
"5195.799999952316","<p>How Tired/Sleepy/Distracted or Fresh/Awake/Alert are you right now?</p>","","html-slider-response","5","35252","0.0-5.0","p7tle2","Thu Feb 10 2022 14:28:09 GMT+0100 (Centraleuropæisk normaltid)","2022","2","10","14","28","9","jt15","22","male","right","30","43","0","6","6","","","50","43","","","","",""
"3296.5","<p>How Hungry or Satiated are you right now?</p>","","html-slider-response","6","38552","0.0-6.0","p7tle2","Thu Feb 10 2022 14:28:09 GMT+0100 (Centraleuropæisk normaltid)","2022","2","10","14","28","9","jt15","22","male","right","30","43","0","6","6","","","50","0","","","","",""
"12567.100000023842","","","survey-multi-select","7","51163","0.0-7.0","p7tle2","Thu Feb 10 2022 14:28:09 GMT+0100 (Centraleuropæisk normaltid)","2022","2","10","14","28","9","jt15","22","male","right","30","43","0","6","6","{""Sleep"":[""6""],""Eat"":[""6""]}","[0,1]","","","","","","",""
"3934.800000011921","<p>In this experiment, a face and a word will appear in the center of the screen.</p><p>If the face is <strong>happy</strong>, press the letter <strong>H</strong> with <strong>right</strong> index finger.</p><p>If the face is <strong>fearful</strong>, press the letter <strong>F</strong> with <strong>left</strong> index finger.</p><p><strong>Ignore the written words</strong>. Respond as fast as possible while being correct. </p><div style='width: 900px;'><div style='float: left;'><img src='img/stimuli_stroop_happy.png'></img><p class='small'><strong>Press the H key for happy faces</strong></p></div><div class='float: right;'><img src='img/stimuli_stroop_fear.png'></img><p class='small'><strong>Press the F key for faces with fear</strong></p></div></div><p>If the screen turns blank, press <strong>SPACE</strong></p><p><strong>Press any key to begin.</strong></p>","32","html-keyboard-response","8","55101","0.0-8.0","p7tle2","Thu Feb 10 2022 14:28:09 GMT+0100 (Centraleuropæisk normaltid)","2022","2","10","14","28","9","jt15","22","male","right","30","43","0","6","6","","","","","","","","",""
"null","<div style=""font-size:60px;"">+</div>","null","html-keyboard-response","9","57608","0.0-9.0-0.0","p7tle2","Thu Feb 10 2022 14:28:09 GMT+0100 (Centraleuropæisk normaltid)","2022","2","10","14","28","9","jt15","22","male","right","30","43","0","6","6","","","","","fixation","","","",""
"790.6999999880791","img/image_stim_f_stroop.png","70","image-keyboard-response","10","58411","0.0-9.0-1.0","p7tle2","Thu Feb 10 2022 14:28:09 GMT+0100 (Centraleuropæisk normaltid)","2022","2","10","14","28","9","jt15","22","male","right","30","43","0","6","6","","","","","test","fear","happy","f","true"
"null","<div style=""font-size:60px;"">+</div>","null","html-keyboard-response","11","58670","0.0-9.0-0.1","p7tle2","Thu Feb 10 2022 14:28:09 GMT+0100 (Centraleuropæisk normaltid)","2022","2","10","14","28","9","jt15","22","male","right","30","43","0","6","6","","","","","fixation","","","",""
"666.4000000357628","img/image_stim_h.png","72","image-keyboard-response","12","59339","0.0-9.0-1.1","p7tle2","Thu Feb 10 2022 14:28:09 GMT+0100 (Centraleuropæisk normaltid)","2022","2","10","14","28","9","jt15","22","male","right","30","43","0","6","6","","","","","test","happy","happy","h","true"
"null","<div style=""font-size:60px;"">+</div>","null","html-keyboard-response","13","59843","0.0-9.0-0.2","p7tle2","Thu Feb 10 2022 14:28:09 GMT+0100 (Centraleuropæisk normaltid)","2022","2","10","14","28","9","jt15","22","male","right","30","43","0","6","6","","","","","fixation","","","",""
"544.1999999880791","img/image_stim_f.png","70","image-keyboard-response","14","60391","0.0-9.0-1.2","p7tle2","Thu Feb 10 2022 14:28:09 GMT+0100 (Centraleuropæisk normaltid)","2022","2","10","14","28","9","jt15","22","male","right","30","43","0","6","6","","","","","test","fear","fear","f","true"
"null","<div style=""font-size:60px;"">+</div>","null","html-keyboard-response","15","61648","0.0-9.0-0.3","p7tle2","Thu Feb 10 2022 14:28:09 GMT+0100 (Centraleuropæisk normaltid)","2022","2","10","14","28","9","jt15","22","male","right","30","43","0","6","6","","","","","fixation","","","",""
"561.6999999880791","img/image_stim_h_stroop.png","72","image-keyboard-response","16","62213","0.0-9.0-1.3","p7tle2","Thu Feb 10 2022 14:28:09 GMT+0100 (Centraleuropæisk normaltid)","2022","2","10","14","28","9","jt15","22","male","right","30","43","0","6","6","","","","","test","happy","fear","h","true"
"null","<div style=""font-size:60px;"">+</div>","null","html-keyboard-response","17","63220","0.0-9.0-0.4","p7tle2","Thu Feb 10 2022 14:28:09 GMT+0100 (Centraleuropæisk normaltid)","2022","2","10","14","28","9","jt15","22","male","right","30","43","0","6","6","","","","","fixation","","","",""
"640.1999999880791","img/image_stim_h_stroop.png","72","image-keyboard-response","18","63863","0.0-9.0-1.4","p7tle2","Thu Feb 10 2022 14:28:09 GMT+0100 (Centraleuropæisk normaltid)","2022","2","10","14","28","9","jt15","22","male","right","30","43","0","6","6","","","","","test","happy","fear","h","true"
"null","<div style=""font-size:60px;"">+</div>","null","html-keyboard-response","19","65371","0.0-9.0-0.5","p7tle2","Thu Feb 10 2022 14:28:09 GMT+0100 (Centraleuropæisk normaltid)","2022","2","10","14","28","9","jt15","22","male","right","30","43","0","6","6","","","","","fixation","","","",""
"537.7999999523163","img/image_stim_f.png","70","image-keyboard-response","20","65912","0.0-9.0-1.5","p7tle2","Thu Feb 10 2022 14:28:09 GMT+0100 (Centraleuropæisk normaltid)","2022","2","10","14","28","9","jt15","22","male","right","30","43","0","6","6","","","","","test","fear","fear","f","true"
"null","<div style=""font-size:60px;"">+</div>","null","html-keyboard-response","21","67669","0.0-9.0-0.6","p7tle2","Thu Feb 10 2022 14:28:09 GMT+0100 (Centraleuropæisk normaltid)","2022","2","10","14","28","9","jt15","22","male","right","30","43","0","6","6","","","","","fixation","","","",""
"438.39999997615814","img/image_stim_h.png","72","image-keyboard-response","22","68110","0.0-9.0-1.6","p7tle2","Thu Feb 10 2022 14:28:09 GMT+0100 (Centraleuropæisk normaltid)","2022","2","10","14","28","9","jt15","22","male","right","30","43","0","6","6","","","","","test","happy","happy","h","true"
"null","<div style=""font-size:60px;"">+</div>","null","html-keyboard-response","23","69369","0.0-9.0-0.7","p7tle2","Thu Feb 10 2022 14:28:09 GMT+0100 (Centraleuropæisk normaltid)","2022","2","10","14","28","9","jt15","22","male","right","30","43","0","6","6","","","","","fixation","","","",""
"739.5","img/image_stim_f_stroop.png","70","image-keyboard-response","24","70112","0.0-9.0-1.7","p7tle2","Thu Feb 10 2022 14:28:09 GMT+0100 (Centraleuropæisk normaltid)","2022","2","10","14","28","9","jt15","22","male","right","30","43","0","6","6","","","","","test","fear","happy","f","true"
"null","<div style=""font-size:60px;"">+</div>","null","html-keyboard-response","25","71119","0.0-9.0-0.8","p7tle2","Thu Feb 10 2022 14:28:09 GMT+0100 (Centraleuropæisk normaltid)","2022","2","10","14","28","9","jt15","22","male","right","30","43","0","6","6","","","","","fixation","","","",""
"425.19999998807907","img/image_stim_f_stroop.png","70","image-keyboard-response","26","71548","0.0-9.0-1.8","p7tle2","Thu Feb 10 2022 14:28:09 GMT+0100 (Centraleuropæisk normaltid)","2022","2","10","14","28","9","jt15","22","male","right","30","43","0","6","6","","","","","test","fear","happy","f","true"
"null","<div style=""font-size:60px;"">+</div>","null","html-keyboard-response","27","72052","0.0-9.0-0.9","p7tle2","Thu Feb 10 2022 14:28:09 GMT+0100 (Centraleuropæisk normaltid)","2022","2","10","14","28","9","jt15","22","male","right","30","43","0","6","6","","","","","fixation","","","",""
"394.19999998807907","img/image_stim_f.png","70","image-keyboard-response","28","72450","0.0-9.0-1.9","p7tle2","Thu Feb 10 2022 14:28:09 GMT+0100 (Centraleuropæisk normaltid)","2022","2","10","14","28","9","jt15","22","male","right","30","43","0","6","6","","","","","test","fear","fear","f","true"
"null","<div style=""font-size:60px;"">+</div>","null","html-keyboard-response","29","73457","0.0-9.0-0.10","p7tle2","Thu Feb 10 2022 14:28:09 GMT+0100 (Centraleuropæisk normaltid)","2022","2","10","14","28","9","jt15","22","male","right","30","43","0","6","6","","","","","fixation","","","",""
"594.8000000119209","img/image_stim_h_stroop.png","72","image-keyboard-response","30","74054","0.0-9.0-1.10","p7tle2","Thu Feb 10 2022 14:28:09 GMT+0100 (Centraleuropæisk normaltid)","2022","2","10","14","28","9","jt15","22","male","right","30","43","0","6","6","","","","","test","happy","fear","h","true"
"null","<div style=""font-size:60px;"">+</div>","null","html-keyboard-response","31","74816","0.0-9.0-0.11","p7tle2","Thu Feb 10 2022 14:28:09 GMT+0100 (Centraleuropæisk normaltid)","2022","2","10","14","28","9","jt15","22","male","right","30","43","0","6","6","","","","","fixation","","","",""
"666.6999999880791","img/image_stim_h.png","72","image-keyboard-response","32","75485","0.0-9.0-1.11","p7tle2","Thu Feb 10 2022 14:28:09 GMT+0100 (Centraleuropæisk normaltid)","2022","2","10","14","28","9","jt15","22","male","right","30","43","0","6","6","","","","","test","happy","happy","h","true"
"null","<div style=""font-size:60px;"">+</div>","null","html-keyboard-response","33","76992","0.0-9.0-0.12","p7tle2","Thu Feb 10 2022 14:28:09 GMT+0100 (Centraleuropæisk normaltid)","2022","2","10","14","28","9","jt15","22","male","right","30","43","0","6","6","","","","","fixation","","","",""
"620.5","img/image_stim_f.png","70","image-keyboard-response","34","77615","0.0-9.0-1.12","p7tle2","Thu Feb 10 2022 14:28:09 GMT+0100 (Centraleuropæisk normaltid)","2022","2","10","14","28","9","jt15","22","male","right","30","43","0","6","6","","","","","test","fear","fear","f","true"
"null","<div style=""font-size:60px;"">+</div>","null","html-keyboard-response","35","78368","0.0-9.0-0.13","p7tle2","Thu Feb 10 2022 14:28:09 GMT+0100 (Centraleuropæisk normaltid)","2022","2","10","14","28","9","jt15","22","male","right","30","43","0","6","6","","","","","fixation","","","",""
"739.5999999642372","img/image_stim_h.png","72","image-keyboard-response","36","79108","0.0-9.0-1.13","p7tle2","Thu Feb 10 2022 14:28:09 GMT+0100 (Centraleuropæisk normaltid)","2022","2","10","14","28","9","jt15","22","male","right","30","43","0","6","6","","","","","test","happy","happy","h","true"
"null","<div style=""font-size:60px;"">+</div>","null","html-keyboard-response","37","80864","0.0-9.0-0.14","p7tle2","Thu Feb 10 2022 14:28:09 GMT+0100 (Centraleuropæisk normaltid)","2022","2","10","14","28","9","jt15","22","male","right","30","43","0","6","6","","","","","fixation","","","",""
"699.5","img/image_stim_h_stroop.png","72","image-keyboard-response","38","81566","0.0-9.0-1.14","p7tle2","Thu Feb 10 2022 14:28:09 GMT+0100 (Centraleuropæisk normaltid)","2022","2","10","14","28","9","jt15","22","male","right","30","43","0","6","6","","","","","test","happy","fear","h","true"
"null","<div style=""font-size:60px;"">+</div>","null","html-keyboard-response","39","82071","0.0-9.0-0.15","p7tle2","Thu Feb 10 2022 14:28:09 GMT+0100 (Centraleuropæisk normaltid)","2022","2","10","14","28","9","jt15","22","male","right","30","43","0","6","6","","","","","fixation","","","",""
"621.7000000476837","img/image_stim_f_stroop.png","70","image-keyboard-response","40","82695","0.0-9.0-1.15","p7tle2","Thu Feb 10 2022 14:28:09 GMT+0100 (Centraleuropæisk normaltid)","2022","2","10","14","28","9","jt15","22","male","right","30","43","0","6","6","","","","","test","fear","happy","f","true"
"null","<div style=""font-size:60px;"">+</div>","null","html-keyboard-response","41","83951","0.0-9.0-0.16","p7tle2","Thu Feb 10 2022 14:28:09 GMT+0100 (Centraleuropæisk normaltid)","2022","2","10","14","28","9","jt15","22","male","right","30","43","0","6","6","","","","","fixation","","","",""
"1146.800000011921","img/image_stim_f.png","70","image-keyboard-response","42","85100","0.0-9.0-1.16","p7tle2","Thu Feb 10 2022 14:28:09 GMT+0100 (Centraleuropæisk normaltid)","2022","2","10","14","28","9","jt15","22","male","right","30","43","0","6","6","","","","","test","fear","fear","f","true"
"null","<div style=""font-size:60px;"">+</div>","null","html-keyboard-response","43","85356","0.0-9.0-0.17","p7tle2","Thu Feb 10 2022 14:28:09 GMT+0100 (Centraleuropæisk normaltid)","2022","2","10","14","28","9","jt15","22","male","right","30","43","0","6","6","","","","","fixation","","","",""
"680.1000000238419","img/image_stim_h_stroop.png","72","image-keyboard-response","44","86039","0.0-9.0-1.17","p7tle2","Thu Feb 10 2022 14:28:09 GMT+0100 (Centraleuropæisk normaltid)","2022","2","10","14","28","9","jt15","22","male","right","30","43","0","6","6","","","","","test","happy","fear","h","true"
"null","<div style=""font-size:60px;"">+</div>","null","html-keyboard-response","45","87547","0.0-9.0-0.18","p7tle2","Thu Feb 10 2022 14:28:09 GMT+0100 (Centraleuropæisk normaltid)","2022","2","10","14","28","9","jt15","22","male","right","30","43","0","6","6","","","","","fixation","","","",""
"767.1000000238419","img/image_stim_f_stroop.png","70","image-keyboard-response","46","88317","0.0-9.0-1.18","p7tle2","Thu Feb 10 2022 14:28:09 GMT+0100 (Centraleuropæisk normaltid)","2022","2","10","14","28","9","jt15","22","male","right","30","43","0","6","6","","","","","test","fear","happy","f","true"
"null","<div style=""font-size:60px;"">+</div>","null","html-keyboard-response","47","90324","0.0-9.0-0.19","p7tle2","Thu Feb 10 2022 14:28:09 GMT+0100 (Centraleuropæisk normaltid)","2022","2","10","14","28","9","jt15","22","male","right","30","43","0","6","6","","","","","fixation","","","",""
"900","img/image_stim_h.png","72","image-keyboard-response","48","91228","0.0-9.0-1.19","p7tle2","Thu Feb 10 2022 14:28:09 GMT+0100 (Centraleuropæisk normaltid)","2022","2","10","14","28","9","jt15","22","male","right","30","43","0","6","6","","","","","test","happy","happy","h","true"
"null","<div style=""font-size:60px;"">+</div>","null","html-keyboard-response","49","91733","0.0-9.0-0.20","p7tle2","Thu Feb 10 2022 14:28:09 GMT+0100 (Centraleuropæisk normaltid)","2022","2","10","14","28","9","jt15","22","male","right","30","43","0","6","6","","","","","fixation","","","",""
"730.5999999642372","img/image_stim_h_stroop.png","72","image-keyboard-response","50","92466","0.0-9.0-1.20","p7tle2","Thu Feb 10 2022 14:28:09 GMT+0100 (Centraleuropæisk normaltid)","2022","2","10","14","28","9","jt15","22","male","right","30","43","0","6","6","","","","","test","happy","fear","h","true"
"null","<div style=""font-size:60px;"">+</div>","null","html-keyboard-response","51","94473","0.0-9.0-0.21","p7tle2","Thu Feb 10 2022 14:28:09 GMT+0100 (Centraleuropæisk normaltid)","2022","2","10","14","28","9","jt15","22","male","right","30","43","0","6","6","","","","","fixation","","","",""
"574.6000000238419","img/image_stim_f.png","70","image-keyboard-response","52","95051","0.0-9.0-1.21","p7tle2","Thu Feb 10 2022 14:28:09 GMT+0100 (Centraleuropæisk normaltid)","2022","2","10","14","28","9","jt15","22","male","right","30","43","0","6","6","","","","","test","fear","fear","f","true"
"null","<div style=""font-size:60px;"">+</div>","null","html-keyboard-response","53","97055","0.0-9.0-0.22","p7tle2","Thu Feb 10 2022 14:28:09 GMT+0100 (Centraleuropæisk normaltid)","2022","2","10","14","28","9","jt15","22","male","right","30","43","0","6","6","","","","","fixation","","","",""
"733","img/image_stim_f_stroop.png","70","image-keyboard-response","54","97792","0.0-9.0-1.22","p7tle2","Thu Feb 10 2022 14:28:09 GMT+0100 (Centraleuropæisk normaltid)","2022","2","10","14","28","9","jt15","22","male","right","30","43","0","6","6","","","","","test","fear","happy","f","true"
"null","<div style=""font-size:60px;"">+</div>","null","html-keyboard-response","55","99051","0.0-9.0-0.23","p7tle2","Thu Feb 10 2022 14:28:09 GMT+0100 (Centraleuropæisk normaltid)","2022","2","10","14","28","9","jt15","22","male","right","30","43","0","6","6","","","","","fixation","","","",""
"869.6000000238419","img/image_stim_h.png","72","image-keyboard-response","56","99922","0.0-9.0-1.23","p7tle2","Thu Feb 10 2022 14:28:09 GMT+0100 (Centraleuropæisk normaltid)","2022","2","10","14","28","9","jt15","22","male","right","30","43","0","6","6","","","","","test","happy","happy","h","true"
"null","<div style=""font-size:60px;"">+</div>","null","html-keyboard-response","57","100928","0.0-9.0-0.24","p7tle2","Thu Feb 10 2022 14:28:09 GMT+0100 (Centraleuropæisk normaltid)","2022","2","10","14","28","9","jt15","22","male","right","30","43","0","6","6","","","","","fixation","","","",""
"557.3999999761581","img/image_stim_f.png","70","image-keyboard-response","58","101489","0.0-9.0-1.24","p7tle2","Thu Feb 10 2022 14:28:09 GMT+0100 (Centraleuropæisk normaltid)","2022","2","10","14","28","9","jt15","22","male","right","30","43","0","6","6","","","","","test","fear","fear","f","true"
"null","<div style=""font-size:60px;"">+</div>","null","html-keyboard-response","59","101754","0.0-9.0-0.25","p7tle2","Thu Feb 10 2022 14:28:09 GMT+0100 (Centraleuropæisk normaltid)","2022","2","10","14","28","9","jt15","22","male","right","30","43","0","6","6","","","","","fixation","","","",""
"967.6000000238419","img/image_stim_h_stroop.png","72","image-keyboard-response","60","102724","0.0-9.0-1.25","p7tle2","Thu Feb 10 2022 14:28:09 GMT+0100 (Centraleuropæisk normaltid)","2022","2","10","14","28","9","jt15","22","male","right","30","43","0","6","6","","","","","test","happy","fear","h","true"
"null","<div style=""font-size:60px;"">+</div>","null","html-keyboard-response","61","102981","0.0-9.0-0.26","p7tle2","Thu Feb 10 2022 14:28:09 GMT+0100 (Centraleuropæisk normaltid)","2022","2","10","14","28","9","jt15","22","male","right","30","43","0","6","6","","","","","fixation","","","",""
"481.10000002384186","img/image_stim_h.png","72","image-keyboard-response","62","103464","0.0-9.0-1.26","p7tle2","Thu Feb 10 2022 14:28:09 GMT+0100 (Centraleuropæisk normaltid)","2022","2","10","14","28","9","jt15","22","male","right","30","43","0","6","6","","","","","test","happy","happy","h","true"
"null","<div style=""font-size:60px;"">+</div>","null","html-keyboard-response","63","104973","0.0-9.0-0.27","p7tle2","Thu Feb 10 2022 14:28:09 GMT+0100 (Centraleuropæisk normaltid)","2022","2","10","14","28","9","jt15","22","male","right","30","43","0","6","6","","","","","fixation","","","",""
"685.4000000357628","img/image_stim_f_stroop.png","70","image-keyboard-response","64","105661","0.0-9.0-1.27","p7tle2","Thu Feb 10 2022 14:28:09 GMT+0100 (Centraleuropæisk normaltid)","2022","2","10","14","28","9","jt15","22","male","right","30","43","0","6","6","","","","","test","fear","happy","f","true"
"null","<div style=""font-size:60px;"">+</div>","null","html-keyboard-response","65","107417","0.0-9.0-0.28","p7tle2","Thu Feb 10 2022 14:28:09 GMT+0100 (Centraleuropæisk normaltid)","2022","2","10","14","28","9","jt15","22","male","right","30","43","0","6","6","","","","","fixation","","","",""
"703.3999999761581","img/image_stim_f_stroop.png","70","image-keyboard-response","66","108124","0.0-9.0-1.28","p7tle2","Thu Feb 10 2022 14:28:09 GMT+0100 (Centraleuropæisk normaltid)","2022","2","10","14","28","9","jt15","22","male","right","30","43","0","6","6","","","","","test","fear","happy","f","true"
"null","<div style=""font-size:60px;"">+</div>","null","html-keyboard-response","67","109878","0.0-9.0-0.29","p7tle2","Thu Feb 10 2022 14:28:09 GMT+0100 (Centraleuropæisk normaltid)","2022","2","10","14","28","9","jt15","22","male","right","30","43","0","6","6","","","","","fixation","","","",""
"653.5999999642372","img/image_stim_h.png","72","image-keyboard-response","68","110535","0.0-9.0-1.29","p7tle2","Thu Feb 10 2022 14:28:09 GMT+0100 (Centraleuropæisk normaltid)","2022","2","10","14","28","9","jt15","22","male","right","30","43","0","6","6","","","","","test","happy","happy","h","true"
"null","<div style=""font-size:60px;"">+</div>","null","html-keyboard-response","69","111294","0.0-9.0-0.30","p7tle2","Thu Feb 10 2022 14:28:09 GMT+0100 (Centraleuropæisk normaltid)","2022","2","10","14","28","9","jt15","22","male","right","30","43","0","6","6","","","","","fixation","","","",""
"333.80000001192093","img/image_stim_f.png","72","image-keyboard-response","70","111630","0.0-9.0-1.30","p7tle2","Thu Feb 10 2022 14:28:09 GMT+0100 (Centraleuropæisk normaltid)","2022","2","10","14","28","9","jt15","22","male","right","30","43","0","6","6","","","","","test","fear","fear","f","false"
"null","<div style=""font-size:60px;"">+</div>","null","html-keyboard-response","71","113637","0.0-9.0-0.31","p7tle2","Thu Feb 10 2022 14:28:09 GMT+0100 (Centraleuropæisk normaltid)","2022","2","10","14","28","9","jt15","22","male","right","30","43","0","6","6","","","","","fixation","","","",""
"697.5","img/image_stim_h_stroop.png","72","image-keyboard-response","72","114337","0.0-9.0-1.31","p7tle2","Thu Feb 10 2022 14:28:09 GMT+0100 (Centraleuropæisk normaltid)","2022","2","10","14","28","9","jt15","22","male","right","30","43","0","6","6","","","","","test","happy","fear","h","true"
"null","<div style=""font-size:60px;"">+</div>","null","html-keyboard-response","73","115594","0.0-9.0-0.32","p7tle2","Thu Feb 10 2022 14:28:09 GMT+0100 (Centraleuropæisk normaltid)","2022","2","10","14","28","9","jt15","22","male","right","30","43","0","6","6","","","","","fixation","","","",""
"918.1999999880791","img/image_stim_h_stroop.png","72","image-keyboard-response","74","116515","0.0-9.0-1.32","p7tle2","Thu Feb 10 2022 14:28:09 GMT+0100 (Centraleuropæisk normaltid)","2022","2","10","14","28","9","jt15","22","male","right","30","43","0","6","6","","","","","test","happy","fear","h","true"
"null","<div style=""font-size:60px;"">+</div>","null","html-keyboard-response","75","117772","0.0-9.0-0.33","p7tle2","Thu Feb 10 2022 14:28:09 GMT+0100 (Centraleuropæisk normaltid)","2022","2","10","14","28","9","jt15","22","male","right","30","43","0","6","6","","","","","fixation","","","",""
"690.5999999642372","img/image_stim_h.png","72","image-keyboard-response","76","118465","0.0-9.0-1.33","p7tle2","Thu Feb 10 2022 14:28:09 GMT+0100 (Centraleuropæisk normaltid)","2022","2","10","14","28","9","jt15","22","male","right","30","43","0","6","6","","","","","test","happy","happy","h","true"
"null","<div style=""font-size:60px;"">+</div>","null","html-keyboard-response","77","119222","0.0-9.0-0.34","p7tle2","Thu Feb 10 2022 14:28:09 GMT+0100 (Centraleuropæisk normaltid)","2022","2","10","14","28","9","jt15","22","male","right","30","43","0","6","6","","","","","fixation","","","",""
"496.30000001192093","img/image_stim_f.png","70","image-keyboard-response","78","119721","0.0-9.0-1.34","p7tle2","Thu Feb 10 2022 14:28:09 GMT+0100 (Centraleuropæisk normaltid)","2022","2","10","14","28","9","jt15","22","male","right","30","43","0","6","6","","","","","test","fear","fear","f","true"
"null","<div style=""font-size:60px;"">+</div>","null","html-keyboard-response","79","119979","0.0-9.0-0.35","p7tle2","Thu Feb 10 2022 14:28:09 GMT+0100 (Centraleuropæisk normaltid)","2022","2","10","14","28","9","jt15","22","male","right","30","43","0","6","6","","","","","fixation","","","",""
"516.1999999880791","img/image_stim_f_stroop.png","70","image-keyboard-response","80","120497","0.0-9.0-1.35","p7tle2","Thu Feb 10 2022 14:28:09 GMT+0100 (Centraleuropæisk normaltid)","2022","2","10","14","28","9","jt15","22","male","right","30","43","0","6","6","","","","","test","fear","happy","f","true"
