"rt","stimulus","key_press","trial_type","trial_index","time_elapsed","internal_node_id","exp_id","Time","year","month","date","hour","minute","seconds","id","age","Gender","Handedness","mood","fresh","hunger","H_since_Sleep","H_since_Eat","responses","question_order","slider_start","response","test_part","face","word","correct_response","correct"
"2157","<p>Welcome to this experiment on daily rhythms and cognition.</p><p>First you will be asked some questions about yourself.</p><p>Then a short experiment will measure your response time.</p><p>Take the test at different times of the day/night.</p><p>The test is anonymous, but comparing your data across time is important.</p><p>Therefore, please make up and remember a personal ID (two letters+ two numbers).</p><p>Use this ID whenever taking the test.</p><p><strong>Press any key to begin.</strong></p>","32","html-keyboard-response","0","2161","0.0-0.0","k6rag2","Thu Feb 10 2022 22:55:43 GMT+0100 (CET)","2022","2","10","22","55","43","mf21","21","female","right","15","7","6","12","5","","","","","","","","",""
"3185.000000000001","","","survey-text","1","5375","0.0-1.0","k6rag2","Thu Feb 10 2022 22:55:43 GMT+0100 (CET)","2022","2","10","22","55","43","mf21","21","female","right","15","7","6","12","5","{""Q0"":""mf21""}","","","","","","","",""
"1258.000000000001","","","survey-text","2","6638","0.0-2.0","k6rag2","Thu Feb 10 2022 22:55:43 GMT+0100 (CET)","2022","2","10","22","55","43","mf21","21","female","right","15","7","6","12","5","{""Q0"":""21""}","","","","","","","",""
"5004.999999999999","","","survey-multi-select","3","11651","0.0-3.0","k6rag2","Thu Feb 10 2022 22:55:43 GMT+0100 (CET)","2022","2","10","22","55","43","mf21","21","female","right","15","7","6","12","5","{""Gender"":[""female""],""Hand"":[""right""]}","[0,1]","","","","","","",""
"5178","<p>How Sad/Angry or Happy are you right now?</p>","","html-slider-response","4","16832","0.0-4.0","k6rag2","Thu Feb 10 2022 22:55:43 GMT+0100 (CET)","2022","2","10","22","55","43","mf21","21","female","right","15","7","6","12","5","","","50","15","","","","",""
"5247","<p>How Tired/Sleepy/Distracted or Fresh/Awake/Alert are you right now?</p>","","html-slider-response","5","22081","0.0-5.0","k6rag2","Thu Feb 10 2022 22:55:43 GMT+0100 (CET)","2022","2","10","22","55","43","mf21","21","female","right","15","7","6","12","5","","","50","7","","","","",""
"2948","<p>How Hungry or Satiated are you right now?</p>","","html-slider-response","6","25038","0.0-6.0","k6rag2","Thu Feb 10 2022 22:55:43 GMT+0100 (CET)","2022","2","10","22","55","43","mf21","21","female","right","15","7","6","12","5","","","50","6","","","","",""
"12854.999999999996","","","survey-multi-select","7","37905","0.0-7.0","k6rag2","Thu Feb 10 2022 22:55:43 GMT+0100 (CET)","2022","2","10","22","55","43","mf21","21","female","right","15","7","6","12","5","{""Sleep"":[""12""],""Eat"":[""5""]}","[0,1]","","","","","","",""
"2862.0000000000073","<p>In this experiment, a face and a word will appear in the center of the screen.</p><p>If the face is <strong>happy</strong>, press the letter <strong>H</strong> with <strong>right</strong> index finger.</p><p>If the face is <strong>fearful</strong>, press the letter <strong>F</strong> with <strong>left</strong> index finger.</p><p><strong>Ignore the written words</strong>. Respond as fast as possible while being correct. </p><div style='width: 900px;'><div style='float: left;'><img src='img/stimuli_stroop_happy.png'></img><p class='small'><strong>Press the H key for happy faces</strong></p></div><div class='float: right;'><img src='img/stimuli_stroop_fear.png'></img><p class='small'><strong>Press the F key for faces with fear</strong></p></div></div><p>If the screen turns blank, press <strong>SPACE</strong></p><p><strong>Press any key to begin.</strong></p>","32","html-keyboard-response","8","40770","0.0-8.0","k6rag2","Thu Feb 10 2022 22:55:43 GMT+0100 (CET)","2022","2","10","22","55","43","mf21","21","female","right","15","7","6","12","5","","","","","","","","",""
"null","<div style=""font-size:60px;"">+</div>","null","html-keyboard-response","9","43775","0.0-9.0-0.0","k6rag2","Thu Feb 10 2022 22:55:43 GMT+0100 (CET)","2022","2","10","22","55","43","mf21","21","female","right","15","7","6","12","5","","","","","fixation","","","",""
"519","img/image_stim_h_stroop.png","72","image-keyboard-response","10","44306","0.0-9.0-1.0","k6rag2","Thu Feb 10 2022 22:55:43 GMT+0100 (CET)","2022","2","10","22","55","43","mf21","21","female","right","15","7","6","12","5","","","","","test","happy","fear","h","true"
"null","<div style=""font-size:60px;"">+</div>","null","html-keyboard-response","11","45815","0.0-9.0-0.1","k6rag2","Thu Feb 10 2022 22:55:43 GMT+0100 (CET)","2022","2","10","22","55","43","mf21","21","female","right","15","7","6","12","5","","","","","fixation","","","",""
"450.0000000000073","img/image_stim_f_stroop.png","70","image-keyboard-response","12","46273","0.0-9.0-1.1","k6rag2","Thu Feb 10 2022 22:55:43 GMT+0100 (CET)","2022","2","10","22","55","43","mf21","21","female","right","15","7","6","12","5","","","","","test","fear","happy","f","true"
"null","<div style=""font-size:60px;"">+</div>","null","html-keyboard-response","13","46778","0.0-9.0-0.2","k6rag2","Thu Feb 10 2022 22:55:43 GMT+0100 (CET)","2022","2","10","22","55","43","mf21","21","female","right","15","7","6","12","5","","","","","fixation","","","",""
"427","img/image_stim_h.png","72","image-keyboard-response","14","47213","0.0-9.0-1.2","k6rag2","Thu Feb 10 2022 22:55:43 GMT+0100 (CET)","2022","2","10","22","55","43","mf21","21","female","right","15","7","6","12","5","","","","","test","happy","happy","h","true"
"null","<div style=""font-size:60px;"">+</div>","null","html-keyboard-response","15","47470","0.0-9.0-0.3","k6rag2","Thu Feb 10 2022 22:55:43 GMT+0100 (CET)","2022","2","10","22","55","43","mf21","21","female","right","15","7","6","12","5","","","","","fixation","","","",""
"469","img/image_stim_f.png","70","image-keyboard-response","16","47945","0.0-9.0-1.3","k6rag2","Thu Feb 10 2022 22:55:43 GMT+0100 (CET)","2022","2","10","22","55","43","mf21","21","female","right","15","7","6","12","5","","","","","test","fear","fear","f","true"
"null","<div style=""font-size:60px;"">+</div>","null","html-keyboard-response","17","49202","0.0-9.0-0.4","k6rag2","Thu Feb 10 2022 22:55:43 GMT+0100 (CET)","2022","2","10","22","55","43","mf21","21","female","right","15","7","6","12","5","","","","","fixation","","","",""
"400","img/image_stim_h_stroop.png","72","image-keyboard-response","18","49604","0.0-9.0-1.4","k6rag2","Thu Feb 10 2022 22:55:43 GMT+0100 (CET)","2022","2","10","22","55","43","mf21","21","female","right","15","7","6","12","5","","","","","test","happy","fear","h","true"
"null","<div style=""font-size:60px;"">+</div>","null","html-keyboard-response","19","51611","0.0-9.0-0.5","k6rag2","Thu Feb 10 2022 22:55:43 GMT+0100 (CET)","2022","2","10","22","55","43","mf21","21","female","right","15","7","6","12","5","","","","","fixation","","","",""
"513.0000000000073","img/image_stim_h.png","72","image-keyboard-response","20","52126","0.0-9.0-1.5","k6rag2","Thu Feb 10 2022 22:55:43 GMT+0100 (CET)","2022","2","10","22","55","43","mf21","21","female","right","15","7","6","12","5","","","","","test","happy","happy","h","true"
"null","<div style=""font-size:60px;"">+</div>","null","html-keyboard-response","21","53633","0.0-9.0-0.6","k6rag2","Thu Feb 10 2022 22:55:43 GMT+0100 (CET)","2022","2","10","22","55","43","mf21","21","female","right","15","7","6","12","5","","","","","fixation","","","",""
"433","img/image_stim_f.png","70","image-keyboard-response","22","54069","0.0-9.0-1.6","k6rag2","Thu Feb 10 2022 22:55:43 GMT+0100 (CET)","2022","2","10","22","55","43","mf21","21","female","right","15","7","6","12","5","","","","","test","fear","fear","f","true"
"null","<div style=""font-size:60px;"">+</div>","null","html-keyboard-response","23","56074","0.0-9.0-0.7","k6rag2","Thu Feb 10 2022 22:55:43 GMT+0100 (CET)","2022","2","10","22","55","43","mf21","21","female","right","15","7","6","12","5","","","","","fixation","","","",""
"449.0000000000073","img/image_stim_f_stroop.png","70","image-keyboard-response","24","56526","0.0-9.0-1.7","k6rag2","Thu Feb 10 2022 22:55:43 GMT+0100 (CET)","2022","2","10","22","55","43","mf21","21","female","right","15","7","6","12","5","","","","","test","fear","happy","f","true"
"null","<div style=""font-size:60px;"">+</div>","null","html-keyboard-response","25","57782","0.0-9.0-0.8","k6rag2","Thu Feb 10 2022 22:55:43 GMT+0100 (CET)","2022","2","10","22","55","43","mf21","21","female","right","15","7","6","12","5","","","","","fixation","","","",""
"461","img/image_stim_f_stroop.png","70","image-keyboard-response","26","58245","0.0-9.0-1.8","k6rag2","Thu Feb 10 2022 22:55:43 GMT+0100 (CET)","2022","2","10","22","55","43","mf21","21","female","right","15","7","6","12","5","","","","","test","fear","happy","f","true"
"null","<div style=""font-size:60px;"">+</div>","null","html-keyboard-response","27","60003","0.0-9.0-0.9","k6rag2","Thu Feb 10 2022 22:55:43 GMT+0100 (CET)","2022","2","10","22","55","43","mf21","21","female","right","15","7","6","12","5","","","","","fixation","","","",""
"528.9999999999927","img/image_stim_h.png","72","image-keyboard-response","28","60534","0.0-9.0-1.9","k6rag2","Thu Feb 10 2022 22:55:43 GMT+0100 (CET)","2022","2","10","22","55","43","mf21","21","female","right","15","7","6","12","5","","","","","test","happy","happy","h","true"
"null","<div style=""font-size:60px;"">+</div>","null","html-keyboard-response","29","61791","0.0-9.0-0.10","k6rag2","Thu Feb 10 2022 22:55:43 GMT+0100 (CET)","2022","2","10","22","55","43","mf21","21","female","right","15","7","6","12","5","","","","","fixation","","","",""
"446","img/image_stim_f.png","70","image-keyboard-response","30","62240","0.0-9.0-1.10","k6rag2","Thu Feb 10 2022 22:55:43 GMT+0100 (CET)","2022","2","10","22","55","43","mf21","21","female","right","15","7","6","12","5","","","","","test","fear","fear","f","true"
"null","<div style=""font-size:60px;"">+</div>","null","html-keyboard-response","31","63496","0.0-9.0-0.11","k6rag2","Thu Feb 10 2022 22:55:43 GMT+0100 (CET)","2022","2","10","22","55","43","mf21","21","female","right","15","7","6","12","5","","","","","fixation","","","",""
"466.9999999999927","img/image_stim_h_stroop.png","72","image-keyboard-response","32","63965","0.0-9.0-1.11","k6rag2","Thu Feb 10 2022 22:55:43 GMT+0100 (CET)","2022","2","10","22","55","43","mf21","21","female","right","15","7","6","12","5","","","","","test","happy","fear","h","true"
"null","<div style=""font-size:60px;"">+</div>","null","html-keyboard-response","33","64222","0.0-9.0-0.12","k6rag2","Thu Feb 10 2022 22:55:43 GMT+0100 (CET)","2022","2","10","22","55","43","mf21","21","female","right","15","7","6","12","5","","","","","fixation","","","",""
"538","img/image_stim_h.png","72","image-keyboard-response","34","64762","0.0-9.0-1.12","k6rag2","Thu Feb 10 2022 22:55:43 GMT+0100 (CET)","2022","2","10","22","55","43","mf21","21","female","right","15","7","6","12","5","","","","","test","happy","happy","h","true"
"null","<div style=""font-size:60px;"">+</div>","null","html-keyboard-response","35","66519","0.0-9.0-0.13","k6rag2","Thu Feb 10 2022 22:55:43 GMT+0100 (CET)","2022","2","10","22","55","43","mf21","21","female","right","15","7","6","12","5","","","","","fixation","","","",""
"434","img/image_stim_h_stroop.png","72","image-keyboard-response","36","66955","0.0-9.0-1.13","k6rag2","Thu Feb 10 2022 22:55:43 GMT+0100 (CET)","2022","2","10","22","55","43","mf21","21","female","right","15","7","6","12","5","","","","","test","happy","fear","h","true"
"null","<div style=""font-size:60px;"">+</div>","null","html-keyboard-response","37","67963","0.0-9.0-0.14","k6rag2","Thu Feb 10 2022 22:55:43 GMT+0100 (CET)","2022","2","10","22","55","43","mf21","21","female","right","15","7","6","12","5","","","","","fixation","","","",""
"455.00000000001455","img/image_stim_f.png","70","image-keyboard-response","38","68420","0.0-9.0-1.14","k6rag2","Thu Feb 10 2022 22:55:43 GMT+0100 (CET)","2022","2","10","22","55","43","mf21","21","female","right","15","7","6","12","5","","","","","test","fear","fear","f","true"
"null","<div style=""font-size:60px;"">+</div>","null","html-keyboard-response","39","69428","0.0-9.0-0.15","k6rag2","Thu Feb 10 2022 22:55:43 GMT+0100 (CET)","2022","2","10","22","55","43","mf21","21","female","right","15","7","6","12","5","","","","","fixation","","","",""
"420","img/image_stim_f_stroop.png","72","image-keyboard-response","40","69851","0.0-9.0-1.15","k6rag2","Thu Feb 10 2022 22:55:43 GMT+0100 (CET)","2022","2","10","22","55","43","mf21","21","female","right","15","7","6","12","5","","","","","test","fear","happy","f","false"
"null","<div style=""font-size:60px;"">+</div>","null","html-keyboard-response","41","70609","0.0-9.0-0.16","k6rag2","Thu Feb 10 2022 22:55:43 GMT+0100 (CET)","2022","2","10","22","55","43","mf21","21","female","right","15","7","6","12","5","","","","","fixation","","","",""
"499","img/image_stim_f.png","72","image-keyboard-response","42","71110","0.0-9.0-1.16","k6rag2","Thu Feb 10 2022 22:55:43 GMT+0100 (CET)","2022","2","10","22","55","43","mf21","21","female","right","15","7","6","12","5","","","","","test","fear","fear","f","false"
"null","<div style=""font-size:60px;"">+</div>","null","html-keyboard-response","43","72868","0.0-9.0-0.17","k6rag2","Thu Feb 10 2022 22:55:43 GMT+0100 (CET)","2022","2","10","22","55","43","mf21","21","female","right","15","7","6","12","5","","","","","fixation","","","",""
"446.00000000001455","img/image_stim_h_stroop.png","72","image-keyboard-response","44","73316","0.0-9.0-1.17","k6rag2","Thu Feb 10 2022 22:55:43 GMT+0100 (CET)","2022","2","10","22","55","43","mf21","21","female","right","15","7","6","12","5","","","","","test","happy","fear","h","true"
"null","<div style=""font-size:60px;"">+</div>","null","html-keyboard-response","45","74323","0.0-9.0-0.18","k6rag2","Thu Feb 10 2022 22:55:43 GMT+0100 (CET)","2022","2","10","22","55","43","mf21","21","female","right","15","7","6","12","5","","","","","fixation","","","",""
"443","img/image_stim_h.png","70","image-keyboard-response","46","74767","0.0-9.0-1.18","k6rag2","Thu Feb 10 2022 22:55:43 GMT+0100 (CET)","2022","2","10","22","55","43","mf21","21","female","right","15","7","6","12","5","","","","","test","happy","happy","h","false"
"null","<div style=""font-size:60px;"">+</div>","null","html-keyboard-response","47","76526","0.0-9.0-0.19","k6rag2","Thu Feb 10 2022 22:55:43 GMT+0100 (CET)","2022","2","10","22","55","43","mf21","21","female","right","15","7","6","12","5","","","","","fixation","","","",""
"500","img/image_stim_f_stroop.png","70","image-keyboard-response","48","77028","0.0-9.0-1.19","k6rag2","Thu Feb 10 2022 22:55:43 GMT+0100 (CET)","2022","2","10","22","55","43","mf21","21","female","right","15","7","6","12","5","","","","","test","fear","happy","f","true"
"null","<div style=""font-size:60px;"">+</div>","null","html-keyboard-response","49","77787","0.0-9.0-0.20","k6rag2","Thu Feb 10 2022 22:55:43 GMT+0100 (CET)","2022","2","10","22","55","43","mf21","21","female","right","15","7","6","12","5","","","","","fixation","","","",""
"542","img/image_stim_h_stroop.png","72","image-keyboard-response","50","78330","0.0-9.0-1.20","k6rag2","Thu Feb 10 2022 22:55:43 GMT+0100 (CET)","2022","2","10","22","55","43","mf21","21","female","right","15","7","6","12","5","","","","","test","happy","fear","h","true"
"null","<div style=""font-size:60px;"">+</div>","null","html-keyboard-response","51","79840","0.0-9.0-0.21","k6rag2","Thu Feb 10 2022 22:55:43 GMT+0100 (CET)","2022","2","10","22","55","43","mf21","21","female","right","15","7","6","12","5","","","","","fixation","","","",""
"524","img/image_stim_f.png","70","image-keyboard-response","52","80366","0.0-9.0-1.21","k6rag2","Thu Feb 10 2022 22:55:43 GMT+0100 (CET)","2022","2","10","22","55","43","mf21","21","female","right","15","7","6","12","5","","","","","test","fear","fear","f","true"
"null","<div style=""font-size:60px;"">+</div>","null","html-keyboard-response","53","82126","0.0-9.0-0.22","k6rag2","Thu Feb 10 2022 22:55:43 GMT+0100 (CET)","2022","2","10","22","55","43","mf21","21","female","right","15","7","6","12","5","","","","","fixation","","","",""
"480","img/image_stim_f_stroop.png","70","image-keyboard-response","54","82607","0.0-9.0-1.22","k6rag2","Thu Feb 10 2022 22:55:43 GMT+0100 (CET)","2022","2","10","22","55","43","mf21","21","female","right","15","7","6","12","5","","","","","test","fear","happy","f","true"
"null","<div style=""font-size:60px;"">+</div>","null","html-keyboard-response","55","82866","0.0-9.0-0.23","k6rag2","Thu Feb 10 2022 22:55:43 GMT+0100 (CET)","2022","2","10","22","55","43","mf21","21","female","right","15","7","6","12","5","","","","","fixation","","","",""
"850","img/image_stim_h.png","72","image-keyboard-response","56","83719","0.0-9.0-1.23","k6rag2","Thu Feb 10 2022 22:55:43 GMT+0100 (CET)","2022","2","10","22","55","43","mf21","21","female","right","15","7","6","12","5","","","","","test","happy","happy","h","true"
"null","<div style=""font-size:60px;"">+</div>","null","html-keyboard-response","57","85228","0.0-9.0-0.24","k6rag2","Thu Feb 10 2022 22:55:43 GMT+0100 (CET)","2022","2","10","22","55","43","mf21","21","female","right","15","7","6","12","5","","","","","fixation","","","",""
"534","img/image_stim_h_stroop.png","72","image-keyboard-response","58","85765","0.0-9.0-1.24","k6rag2","Thu Feb 10 2022 22:55:43 GMT+0100 (CET)","2022","2","10","22","55","43","mf21","21","female","right","15","7","6","12","5","","","","","test","happy","fear","h","true"
"null","<div style=""font-size:60px;"">+</div>","null","html-keyboard-response","59","86775","0.0-9.0-0.25","k6rag2","Thu Feb 10 2022 22:55:43 GMT+0100 (CET)","2022","2","10","22","55","43","mf21","21","female","right","15","7","6","12","5","","","","","fixation","","","",""
"638.0000000000146","img/image_stim_f.png","70","image-keyboard-response","60","87414","0.0-9.0-1.25","k6rag2","Thu Feb 10 2022 22:55:43 GMT+0100 (CET)","2022","2","10","22","55","43","mf21","21","female","right","15","7","6","12","5","","","","","test","fear","fear","f","true"
"null","<div style=""font-size:60px;"">+</div>","null","html-keyboard-response","61","87931","0.0-9.0-0.26","k6rag2","Thu Feb 10 2022 22:55:43 GMT+0100 (CET)","2022","2","10","22","55","43","mf21","21","female","right","15","7","6","12","5","","","","","fixation","","","",""
"590","img/image_stim_h.png","70","image-keyboard-response","62","88523","0.0-9.0-1.26","k6rag2","Thu Feb 10 2022 22:55:43 GMT+0100 (CET)","2022","2","10","22","55","43","mf21","21","female","right","15","7","6","12","5","","","","","test","happy","happy","h","false"
"null","<div style=""font-size:60px;"">+</div>","null","html-keyboard-response","63","89784","0.0-9.0-0.27","k6rag2","Thu Feb 10 2022 22:55:43 GMT+0100 (CET)","2022","2","10","22","55","43","mf21","21","female","right","15","7","6","12","5","","","","","fixation","","","",""
"551.9999999999854","img/image_stim_f_stroop.png","70","image-keyboard-response","64","90338","0.0-9.0-1.27","k6rag2","Thu Feb 10 2022 22:55:43 GMT+0100 (CET)","2022","2","10","22","55","43","mf21","21","female","right","15","7","6","12","5","","","","","test","fear","happy","f","true"
"null","<div style=""font-size:60px;"">+</div>","null","html-keyboard-response","65","91098","0.0-9.0-0.28","k6rag2","Thu Feb 10 2022 22:55:43 GMT+0100 (CET)","2022","2","10","22","55","43","mf21","21","female","right","15","7","6","12","5","","","","","fixation","","","",""
"548","img/image_stim_h_stroop.png","72","image-keyboard-response","66","91649","0.0-9.0-1.28","k6rag2","Thu Feb 10 2022 22:55:43 GMT+0100 (CET)","2022","2","10","22","55","43","mf21","21","female","right","15","7","6","12","5","","","","","test","happy","fear","h","true"
"null","<div style=""font-size:60px;"">+</div>","null","html-keyboard-response","67","93658","0.0-9.0-0.29","k6rag2","Thu Feb 10 2022 22:55:43 GMT+0100 (CET)","2022","2","10","22","55","43","mf21","21","female","right","15","7","6","12","5","","","","","fixation","","","",""
"755","img/image_stim_f.png","70","image-keyboard-response","68","94414","0.0-9.0-1.29","k6rag2","Thu Feb 10 2022 22:55:43 GMT+0100 (CET)","2022","2","10","22","55","43","mf21","21","female","right","15","7","6","12","5","","","","","test","fear","fear","f","true"
"null","<div style=""font-size:60px;"">+</div>","null","html-keyboard-response","69","96173","0.0-9.0-0.30","k6rag2","Thu Feb 10 2022 22:55:43 GMT+0100 (CET)","2022","2","10","22","55","43","mf21","21","female","right","15","7","6","12","5","","","","","fixation","","","",""
"489.00000000001455","img/image_stim_h.png","72","image-keyboard-response","70","96665","0.0-9.0-1.30","k6rag2","Thu Feb 10 2022 22:55:43 GMT+0100 (CET)","2022","2","10","22","55","43","mf21","21","female","right","15","7","6","12","5","","","","","test","happy","happy","h","true"
"null","<div style=""font-size:60px;"">+</div>","null","html-keyboard-response","71","98425","0.0-9.0-0.31","k6rag2","Thu Feb 10 2022 22:55:43 GMT+0100 (CET)","2022","2","10","22","55","43","mf21","21","female","right","15","7","6","12","5","","","","","fixation","","","",""
"475","img/image_stim_f_stroop.png","72","image-keyboard-response","72","98903","0.0-9.0-1.31","k6rag2","Thu Feb 10 2022 22:55:43 GMT+0100 (CET)","2022","2","10","22","55","43","mf21","21","female","right","15","7","6","12","5","","","","","test","fear","happy","f","false"
"null","<div style=""font-size:60px;"">+</div>","null","html-keyboard-response","73","100413","0.0-9.0-0.32","k6rag2","Thu Feb 10 2022 22:55:43 GMT+0100 (CET)","2022","2","10","22","55","43","mf21","21","female","right","15","7","6","12","5","","","","","fixation","","","",""
"669.0000000000146","img/image_stim_f_stroop.png","72","image-keyboard-response","74","101084","0.0-9.0-1.32","k6rag2","Thu Feb 10 2022 22:55:43 GMT+0100 (CET)","2022","2","10","22","55","43","mf21","21","female","right","15","7","6","12","5","","","","","test","fear","happy","f","false"
"null","<div style=""font-size:60px;"">+</div>","null","html-keyboard-response","75","101345","0.0-9.0-0.33","k6rag2","Thu Feb 10 2022 22:55:43 GMT+0100 (CET)","2022","2","10","22","55","43","mf21","21","female","right","15","7","6","12","5","","","","","fixation","","","",""
"803","img/image_stim_h_stroop.png","72","image-keyboard-response","76","102150","0.0-9.0-1.33","k6rag2","Thu Feb 10 2022 22:55:43 GMT+0100 (CET)","2022","2","10","22","55","43","mf21","21","female","right","15","7","6","12","5","","","","","test","happy","fear","h","true"
"null","<div style=""font-size:60px;"">+</div>","null","html-keyboard-response","77","102661","0.0-9.0-0.34","k6rag2","Thu Feb 10 2022 22:55:43 GMT+0100 (CET)","2022","2","10","22","55","43","mf21","21","female","right","15","7","6","12","5","","","","","fixation","","","",""
"494","img/image_stim_h.png","70","image-keyboard-response","78","103157","0.0-9.0-1.34","k6rag2","Thu Feb 10 2022 22:55:43 GMT+0100 (CET)","2022","2","10","22","55","43","mf21","21","female","right","15","7","6","12","5","","","","","test","happy","happy","h","false"
"null","<div style=""font-size:60px;"">+</div>","null","html-keyboard-response","79","104167","0.0-9.0-0.35","k6rag2","Thu Feb 10 2022 22:55:43 GMT+0100 (CET)","2022","2","10","22","55","43","mf21","21","female","right","15","7","6","12","5","","","","","fixation","","","",""
"583","img/image_stim_f.png","70","image-keyboard-response","80","104752","0.0-9.0-1.35","k6rag2","Thu Feb 10 2022 22:55:43 GMT+0100 (CET)","2022","2","10","22","55","43","mf21","21","female","right","15","7","6","12","5","","","","","test","fear","fear","f","true"
