"rt","stimulus","key_press","trial_type","trial_index","time_elapsed","internal_node_id","exp_id","Time","year","month","date","hour","minute","seconds","id","age","Gender","Handedness","mood","fresh","hunger","H_since_Sleep","H_since_Eat","responses","question_order","slider_start","response","test_part","face","word","correct_response","correct"
"11921","<p>Welcome to this experiment on daily rhythms and cognition.</p><p>First you will be asked some questions about yourself.</p><p>Then a short experiment will measure your response time.</p><p>Take the test at different times of the day/night.</p><p>The test is anonymous, but comparing your data across time is important.</p><p>Therefore, please make up and remember a personal ID (two letters+ two numbers).</p><p>Use this ID whenever taking the test.</p><p><strong>Press any key to begin.</strong></p>","32","html-keyboard-response","0","11922","0.0-0.0","8ws817","Mon Feb 07 2022 20:11:27 GMT+0100 (CET)","2022","2","7","20","11","27","ID88","23","female","right","85","81","3","12","10","","","","","","","","",""
"11661","","","survey-text","1","23607","0.0-1.0","8ws817","Mon Feb 07 2022 20:11:27 GMT+0100 (CET)","2022","2","7","20","11","27","ID88","23","female","right","85","81","3","12","10","{""Q0"":""ID88""}","","","","","","","",""
"2609","","","survey-text","2","26221","0.0-2.0","8ws817","Mon Feb 07 2022 20:11:27 GMT+0100 (CET)","2022","2","7","20","11","27","ID88","23","female","right","85","81","3","12","10","{""Q0"":""23""}","","","","","","","",""
"8046","","","survey-multi-select","3","34270","0.0-3.0","8ws817","Mon Feb 07 2022 20:11:27 GMT+0100 (CET)","2022","2","7","20","11","27","ID88","23","female","right","85","81","3","12","10","{""Gender"":[""female""],""Hand"":[""right""]}","[0,1]","","","","","","",""
"3217","<p>How Sad/Angry or Happy are you right now?</p>","","html-slider-response","4","37492","0.0-4.0","8ws817","Mon Feb 07 2022 20:11:27 GMT+0100 (CET)","2022","2","7","20","11","27","ID88","23","female","right","85","81","3","12","10","","","50","85","","","","",""
"3846","<p>How Tired/Sleepy/Distracted or Fresh/Awake/Alert are you right now?</p>","","html-slider-response","5","41339","0.0-5.0","8ws817","Mon Feb 07 2022 20:11:27 GMT+0100 (CET)","2022","2","7","20","11","27","ID88","23","female","right","85","81","3","12","10","","","50","81","","","","",""
"5827","<p>How Hungry or Satiated are you right now?</p>","","html-slider-response","6","47167","0.0-6.0","8ws817","Mon Feb 07 2022 20:11:27 GMT+0100 (CET)","2022","2","7","20","11","27","ID88","23","female","right","85","81","3","12","10","","","50","3","","","","",""
"17010.999999999993","","","survey-multi-select","7","64185","0.0-7.0","8ws817","Mon Feb 07 2022 20:11:27 GMT+0100 (CET)","2022","2","7","20","11","27","ID88","23","female","right","85","81","3","12","10","{""Sleep"":[""12""],""Eat"":[""10""]}","[0,1]","","","","","","",""
"14626.000000000007","<p>In this experiment, a face and a word will appear in the center of the screen.</p><p>If the face is <strong>happy</strong>, press the letter <strong>H</strong> with <strong>right</strong> index finger.</p><p>If the face is <strong>fearful</strong>, press the letter <strong>F</strong> with <strong>left</strong> index finger.</p><p><strong>Ignore the written words</strong>. Respond as fast as possible while being correct. </p><div style='width: 900px;'><div style='float: left;'><img src='img/stimuli_stroop_happy.png'></img><p class='small'><strong>Press the H key for happy faces</strong></p></div><div class='float: right;'><img src='img/stimuli_stroop_fear.png'></img><p class='small'><strong>Press the F key for faces with fear</strong></p></div></div><p>If the screen turns blank, press <strong>SPACE</strong></p><p><strong>Press any key to begin.</strong></p>","72","html-keyboard-response","8","78813","0.0-8.0","8ws817","Mon Feb 07 2022 20:11:27 GMT+0100 (CET)","2022","2","7","20","11","27","ID88","23","female","right","85","81","3","12","10","","","","","","","","",""
"null","<div style=""font-size:60px;"">+</div>","null","html-keyboard-response","9","82318","0.0-9.0-0.0","8ws817","Mon Feb 07 2022 20:11:27 GMT+0100 (CET)","2022","2","7","20","11","27","ID88","23","female","right","85","81","3","12","10","","","","","fixation","","","",""
"956.0000000000146","img/image_stim_f_stroop.png","72","image-keyboard-response","10","83283","0.0-9.0-1.0","8ws817","Mon Feb 07 2022 20:11:27 GMT+0100 (CET)","2022","2","7","20","11","27","ID88","23","female","right","85","81","3","12","10","","","","","test","fear","happy","f","false"
"null","<div style=""font-size:60px;"">+</div>","null","html-keyboard-response","11","85286","0.0-9.0-0.1","8ws817","Mon Feb 07 2022 20:11:27 GMT+0100 (CET)","2022","2","7","20","11","27","ID88","23","female","right","85","81","3","12","10","","","","","fixation","","","",""
"1072.9999999999854","img/image_stim_h.png","72","image-keyboard-response","12","86363","0.0-9.0-1.1","8ws817","Mon Feb 07 2022 20:11:27 GMT+0100 (CET)","2022","2","7","20","11","27","ID88","23","female","right","85","81","3","12","10","","","","","test","happy","happy","h","true"
"null","<div style=""font-size:60px;"">+</div>","null","html-keyboard-response","13","86865","0.0-9.0-0.2","8ws817","Mon Feb 07 2022 20:11:27 GMT+0100 (CET)","2022","2","7","20","11","27","ID88","23","female","right","85","81","3","12","10","","","","","fixation","","","",""
"1620","img/image_stim_h_stroop.png","72","image-keyboard-response","14","88490","0.0-9.0-1.2","8ws817","Mon Feb 07 2022 20:11:27 GMT+0100 (CET)","2022","2","7","20","11","27","ID88","23","female","right","85","81","3","12","10","","","","","test","happy","fear","h","true"
"null","<div style=""font-size:60px;"">+</div>","null","html-keyboard-response","15","90245","0.0-9.0-0.3","8ws817","Mon Feb 07 2022 20:11:27 GMT+0100 (CET)","2022","2","7","20","11","27","ID88","23","female","right","85","81","3","12","10","","","","","fixation","","","",""
"1070","img/image_stim_f.png","70","image-keyboard-response","16","91318","0.0-9.0-1.3","8ws817","Mon Feb 07 2022 20:11:27 GMT+0100 (CET)","2022","2","7","20","11","27","ID88","23","female","right","85","81","3","12","10","","","","","test","fear","fear","f","true"
"null","<div style=""font-size:60px;"">+</div>","null","html-keyboard-response","17","92324","0.0-9.0-0.4","8ws817","Mon Feb 07 2022 20:11:27 GMT+0100 (CET)","2022","2","7","20","11","27","ID88","23","female","right","85","81","3","12","10","","","","","fixation","","","",""
"1013","img/image_stim_f_stroop.png","70","image-keyboard-response","18","93337","0.0-9.0-1.4","8ws817","Mon Feb 07 2022 20:11:27 GMT+0100 (CET)","2022","2","7","20","11","27","ID88","23","female","right","85","81","3","12","10","","","","","test","fear","happy","f","true"
"null","<div style=""font-size:60px;"">+</div>","null","html-keyboard-response","19","94841","0.0-9.0-0.5","8ws817","Mon Feb 07 2022 20:11:27 GMT+0100 (CET)","2022","2","7","20","11","27","ID88","23","female","right","85","81","3","12","10","","","","","fixation","","","",""
"617","img/image_stim_h_stroop.png","72","image-keyboard-response","20","95459","0.0-9.0-1.5","8ws817","Mon Feb 07 2022 20:11:27 GMT+0100 (CET)","2022","2","7","20","11","27","ID88","23","female","right","85","81","3","12","10","","","","","test","happy","fear","h","true"
"null","<div style=""font-size:60px;"">+</div>","null","html-keyboard-response","21","95963","0.0-9.0-0.6","8ws817","Mon Feb 07 2022 20:11:27 GMT+0100 (CET)","2022","2","7","20","11","27","ID88","23","female","right","85","81","3","12","10","","","","","fixation","","","",""
"712.0000000000146","img/image_stim_f.png","70","image-keyboard-response","22","96677","0.0-9.0-1.6","8ws817","Mon Feb 07 2022 20:11:27 GMT+0100 (CET)","2022","2","7","20","11","27","ID88","23","female","right","85","81","3","12","10","","","","","test","fear","fear","f","true"
"null","<div style=""font-size:60px;"">+</div>","null","html-keyboard-response","23","96930","0.0-9.0-0.7","8ws817","Mon Feb 07 2022 20:11:27 GMT+0100 (CET)","2022","2","7","20","11","27","ID88","23","female","right","85","81","3","12","10","","","","","fixation","","","",""
"595","img/image_stim_h.png","72","image-keyboard-response","24","97526","0.0-9.0-1.7","8ws817","Mon Feb 07 2022 20:11:27 GMT+0100 (CET)","2022","2","7","20","11","27","ID88","23","female","right","85","81","3","12","10","","","","","test","happy","happy","h","true"
"null","<div style=""font-size:60px;"">+</div>","null","html-keyboard-response","25","99281","0.0-9.0-0.8","8ws817","Mon Feb 07 2022 20:11:27 GMT+0100 (CET)","2022","2","7","20","11","27","ID88","23","female","right","85","81","3","12","10","","","","","fixation","","","",""
"729","img/image_stim_f.png","70","image-keyboard-response","26","100011","0.0-9.0-1.8","8ws817","Mon Feb 07 2022 20:11:27 GMT+0100 (CET)","2022","2","7","20","11","27","ID88","23","female","right","85","81","3","12","10","","","","","test","fear","fear","f","true"
"null","<div style=""font-size:60px;"">+</div>","null","html-keyboard-response","27","101265","0.0-9.0-0.9","8ws817","Mon Feb 07 2022 20:11:27 GMT+0100 (CET)","2022","2","7","20","11","27","ID88","23","female","right","85","81","3","12","10","","","","","fixation","","","",""
"426.99999999998545","img/image_stim_f_stroop.png","70","image-keyboard-response","28","101694","0.0-9.0-1.9","8ws817","Mon Feb 07 2022 20:11:27 GMT+0100 (CET)","2022","2","7","20","11","27","ID88","23","female","right","85","81","3","12","10","","","","","test","fear","happy","f","true"
"null","<div style=""font-size:60px;"">+</div>","null","html-keyboard-response","29","102450","0.0-9.0-0.10","8ws817","Mon Feb 07 2022 20:11:27 GMT+0100 (CET)","2022","2","7","20","11","27","ID88","23","female","right","85","81","3","12","10","","","","","fixation","","","",""
"569.0000000000146","img/image_stim_h_stroop.png","72","image-keyboard-response","30","103022","0.0-9.0-1.10","8ws817","Mon Feb 07 2022 20:11:27 GMT+0100 (CET)","2022","2","7","20","11","27","ID88","23","female","right","85","81","3","12","10","","","","","test","happy","fear","h","true"
"null","<div style=""font-size:60px;"">+</div>","null","html-keyboard-response","31","105025","0.0-9.0-0.11","8ws817","Mon Feb 07 2022 20:11:27 GMT+0100 (CET)","2022","2","7","20","11","27","ID88","23","female","right","85","81","3","12","10","","","","","fixation","","","",""
"856.9999999999854","img/image_stim_h.png","72","image-keyboard-response","32","105885","0.0-9.0-1.11","8ws817","Mon Feb 07 2022 20:11:27 GMT+0100 (CET)","2022","2","7","20","11","27","ID88","23","female","right","85","81","3","12","10","","","","","test","happy","happy","h","true"
"null","<div style=""font-size:60px;"">+</div>","null","html-keyboard-response","33","107887","0.0-9.0-0.12","8ws817","Mon Feb 07 2022 20:11:27 GMT+0100 (CET)","2022","2","7","20","11","27","ID88","23","female","right","85","81","3","12","10","","","","","fixation","","","",""
"778.0000000000146","img/image_stim_h_stroop.png","72","image-keyboard-response","34","108668","0.0-9.0-1.12","8ws817","Mon Feb 07 2022 20:11:27 GMT+0100 (CET)","2022","2","7","20","11","27","ID88","23","female","right","85","81","3","12","10","","","","","test","happy","fear","h","true"
"null","<div style=""font-size:60px;"">+</div>","null","html-keyboard-response","35","110173","0.0-9.0-0.13","8ws817","Mon Feb 07 2022 20:11:27 GMT+0100 (CET)","2022","2","7","20","11","27","ID88","23","female","right","85","81","3","12","10","","","","","fixation","","","",""
"536","img/image_stim_h.png","72","image-keyboard-response","36","110712","0.0-9.0-1.13","8ws817","Mon Feb 07 2022 20:11:27 GMT+0100 (CET)","2022","2","7","20","11","27","ID88","23","female","right","85","81","3","12","10","","","","","test","happy","happy","h","true"
"null","<div style=""font-size:60px;"">+</div>","null","html-keyboard-response","37","112218","0.0-9.0-0.14","8ws817","Mon Feb 07 2022 20:11:27 GMT+0100 (CET)","2022","2","7","20","11","27","ID88","23","female","right","85","81","3","12","10","","","","","fixation","","","",""
"667","img/image_stim_f_stroop.png","70","image-keyboard-response","38","112888","0.0-9.0-1.14","8ws817","Mon Feb 07 2022 20:11:27 GMT+0100 (CET)","2022","2","7","20","11","27","ID88","23","female","right","85","81","3","12","10","","","","","test","fear","happy","f","true"
"null","<div style=""font-size:60px;"">+</div>","null","html-keyboard-response","39","113143","0.0-9.0-0.15","8ws817","Mon Feb 07 2022 20:11:27 GMT+0100 (CET)","2022","2","7","20","11","27","ID88","23","female","right","85","81","3","12","10","","","","","fixation","","","",""
"792.9999999999854","img/image_stim_f.png","70","image-keyboard-response","40","113940","0.0-9.0-1.15","8ws817","Mon Feb 07 2022 20:11:27 GMT+0100 (CET)","2022","2","7","20","11","27","ID88","23","female","right","85","81","3","12","10","","","","","test","fear","fear","f","true"
"null","<div style=""font-size:60px;"">+</div>","null","html-keyboard-response","41","114696","0.0-9.0-0.16","8ws817","Mon Feb 07 2022 20:11:27 GMT+0100 (CET)","2022","2","7","20","11","27","ID88","23","female","right","85","81","3","12","10","","","","","fixation","","","",""
"551","img/image_stim_h.png","72","image-keyboard-response","42","115249","0.0-9.0-1.16","8ws817","Mon Feb 07 2022 20:11:27 GMT+0100 (CET)","2022","2","7","20","11","27","ID88","23","female","right","85","81","3","12","10","","","","","test","happy","happy","h","true"
"null","<div style=""font-size:60px;"">+</div>","null","html-keyboard-response","43","117254","0.0-9.0-0.17","8ws817","Mon Feb 07 2022 20:11:27 GMT+0100 (CET)","2022","2","7","20","11","27","ID88","23","female","right","85","81","3","12","10","","","","","fixation","","","",""
"930","img/image_stim_f_stroop.png","70","image-keyboard-response","44","118187","0.0-9.0-1.17","8ws817","Mon Feb 07 2022 20:11:27 GMT+0100 (CET)","2022","2","7","20","11","27","ID88","23","female","right","85","81","3","12","10","","","","","test","fear","happy","f","true"
"null","<div style=""font-size:60px;"">+</div>","null","html-keyboard-response","45","119193","0.0-9.0-0.18","8ws817","Mon Feb 07 2022 20:11:27 GMT+0100 (CET)","2022","2","7","20","11","27","ID88","23","female","right","85","81","3","12","10","","","","","fixation","","","",""
"755","img/image_stim_f.png","70","image-keyboard-response","46","119952","0.0-9.0-1.18","8ws817","Mon Feb 07 2022 20:11:27 GMT+0100 (CET)","2022","2","7","20","11","27","ID88","23","female","right","85","81","3","12","10","","","","","test","fear","fear","f","true"
"null","<div style=""font-size:60px;"">+</div>","null","html-keyboard-response","47","121958","0.0-9.0-0.19","8ws817","Mon Feb 07 2022 20:11:27 GMT+0100 (CET)","2022","2","7","20","11","27","ID88","23","female","right","85","81","3","12","10","","","","","fixation","","","",""
"593","img/image_stim_h_stroop.png","72","image-keyboard-response","48","122553","0.0-9.0-1.19","8ws817","Mon Feb 07 2022 20:11:27 GMT+0100 (CET)","2022","2","7","20","11","27","ID88","23","female","right","85","81","3","12","10","","","","","test","happy","fear","h","true"
"null","<div style=""font-size:60px;"">+</div>","null","html-keyboard-response","49","124557","0.0-9.0-0.20","8ws817","Mon Feb 07 2022 20:11:27 GMT+0100 (CET)","2022","2","7","20","11","27","ID88","23","female","right","85","81","3","12","10","","","","","fixation","","","",""
"409","img/image_stim_f.png","72","image-keyboard-response","50","124968","0.0-9.0-1.20","8ws817","Mon Feb 07 2022 20:11:27 GMT+0100 (CET)","2022","2","7","20","11","27","ID88","23","female","right","85","81","3","12","10","","","","","test","fear","fear","f","false"
"null","<div style=""font-size:60px;"">+</div>","null","html-keyboard-response","51","126724","0.0-9.0-0.21","8ws817","Mon Feb 07 2022 20:11:27 GMT+0100 (CET)","2022","2","7","20","11","27","ID88","23","female","right","85","81","3","12","10","","","","","fixation","","","",""
"888.9999999999854","img/image_stim_f_stroop.png","70","image-keyboard-response","52","127617","0.0-9.0-1.21","8ws817","Mon Feb 07 2022 20:11:27 GMT+0100 (CET)","2022","2","7","20","11","27","ID88","23","female","right","85","81","3","12","10","","","","","test","fear","happy","f","true"
"null","<div style=""font-size:60px;"">+</div>","null","html-keyboard-response","53","129373","0.0-9.0-0.22","8ws817","Mon Feb 07 2022 20:11:27 GMT+0100 (CET)","2022","2","7","20","11","27","ID88","23","female","right","85","81","3","12","10","","","","","fixation","","","",""
"734.9999999999854","img/image_stim_h_stroop.png","72","image-keyboard-response","54","130111","0.0-9.0-1.22","8ws817","Mon Feb 07 2022 20:11:27 GMT+0100 (CET)","2022","2","7","20","11","27","ID88","23","female","right","85","81","3","12","10","","","","","test","happy","fear","h","true"
"null","<div style=""font-size:60px;"">+</div>","null","html-keyboard-response","55","131618","0.0-9.0-0.23","8ws817","Mon Feb 07 2022 20:11:27 GMT+0100 (CET)","2022","2","7","20","11","27","ID88","23","female","right","85","81","3","12","10","","","","","fixation","","","",""
"994","img/image_stim_h.png","72","image-keyboard-response","56","132616","0.0-9.0-1.23","8ws817","Mon Feb 07 2022 20:11:27 GMT+0100 (CET)","2022","2","7","20","11","27","ID88","23","female","right","85","81","3","12","10","","","","","test","happy","happy","h","true"
"null","<div style=""font-size:60px;"">+</div>","null","html-keyboard-response","57","134372","0.0-9.0-0.24","8ws817","Mon Feb 07 2022 20:11:27 GMT+0100 (CET)","2022","2","7","20","11","27","ID88","23","female","right","85","81","3","12","10","","","","","fixation","","","",""
"618","img/image_stim_f.png","70","image-keyboard-response","58","134992","0.0-9.0-1.24","8ws817","Mon Feb 07 2022 20:11:27 GMT+0100 (CET)","2022","2","7","20","11","27","ID88","23","female","right","85","81","3","12","10","","","","","test","fear","fear","f","true"
"null","<div style=""font-size:60px;"">+</div>","null","html-keyboard-response","59","135499","0.0-9.0-0.25","8ws817","Mon Feb 07 2022 20:11:27 GMT+0100 (CET)","2022","2","7","20","11","27","ID88","23","female","right","85","81","3","12","10","","","","","fixation","","","",""
"962","img/image_stim_f_stroop.png","70","image-keyboard-response","60","136464","0.0-9.0-1.25","8ws817","Mon Feb 07 2022 20:11:27 GMT+0100 (CET)","2022","2","7","20","11","27","ID88","23","female","right","85","81","3","12","10","","","","","test","fear","happy","f","true"
"null","<div style=""font-size:60px;"">+</div>","null","html-keyboard-response","61","136720","0.0-9.0-0.26","8ws817","Mon Feb 07 2022 20:11:27 GMT+0100 (CET)","2022","2","7","20","11","27","ID88","23","female","right","85","81","3","12","10","","","","","fixation","","","",""
"563","img/image_stim_h_stroop.png","72","image-keyboard-response","62","137287","0.0-9.0-1.26","8ws817","Mon Feb 07 2022 20:11:27 GMT+0100 (CET)","2022","2","7","20","11","27","ID88","23","female","right","85","81","3","12","10","","","","","test","happy","fear","h","true"
"null","<div style=""font-size:60px;"">+</div>","null","html-keyboard-response","63","138543","0.0-9.0-0.27","8ws817","Mon Feb 07 2022 20:11:27 GMT+0100 (CET)","2022","2","7","20","11","27","ID88","23","female","right","85","81","3","12","10","","","","","fixation","","","",""
"1590","img/image_stim_h.png","72","image-keyboard-response","64","140136","0.0-9.0-1.27","8ws817","Mon Feb 07 2022 20:11:27 GMT+0100 (CET)","2022","2","7","20","11","27","ID88","23","female","right","85","81","3","12","10","","","","","test","happy","happy","h","true"
"null","<div style=""font-size:60px;"">+</div>","null","html-keyboard-response","65","141143","0.0-9.0-0.28","8ws817","Mon Feb 07 2022 20:11:27 GMT+0100 (CET)","2022","2","7","20","11","27","ID88","23","female","right","85","81","3","12","10","","","","","fixation","","","",""
"772","img/image_stim_h_stroop.png","72","image-keyboard-response","66","141918","0.0-9.0-1.28","8ws817","Mon Feb 07 2022 20:11:27 GMT+0100 (CET)","2022","2","7","20","11","27","ID88","23","female","right","85","81","3","12","10","","","","","test","happy","fear","h","true"
"null","<div style=""font-size:60px;"">+</div>","null","html-keyboard-response","67","142420","0.0-9.0-0.29","8ws817","Mon Feb 07 2022 20:11:27 GMT+0100 (CET)","2022","2","7","20","11","27","ID88","23","female","right","85","81","3","12","10","","","","","fixation","","","",""
"586","img/image_stim_f_stroop.png","70","image-keyboard-response","68","143010","0.0-9.0-1.29","8ws817","Mon Feb 07 2022 20:11:27 GMT+0100 (CET)","2022","2","7","20","11","27","ID88","23","female","right","85","81","3","12","10","","","","","test","fear","happy","f","true"
"null","<div style=""font-size:60px;"">+</div>","null","html-keyboard-response","69","143767","0.0-9.0-0.30","8ws817","Mon Feb 07 2022 20:11:27 GMT+0100 (CET)","2022","2","7","20","11","27","ID88","23","female","right","85","81","3","12","10","","","","","fixation","","","",""
"674","img/image_stim_f.png","70","image-keyboard-response","70","144444","0.0-9.0-1.30","8ws817","Mon Feb 07 2022 20:11:27 GMT+0100 (CET)","2022","2","7","20","11","27","ID88","23","female","right","85","81","3","12","10","","","","","test","fear","fear","f","true"
"null","<div style=""font-size:60px;"">+</div>","null","html-keyboard-response","71","145700","0.0-9.0-0.31","8ws817","Mon Feb 07 2022 20:11:27 GMT+0100 (CET)","2022","2","7","20","11","27","ID88","23","female","right","85","81","3","12","10","","","","","fixation","","","",""
"733","img/image_stim_h.png","72","image-keyboard-response","72","146435","0.0-9.0-1.31","8ws817","Mon Feb 07 2022 20:11:27 GMT+0100 (CET)","2022","2","7","20","11","27","ID88","23","female","right","85","81","3","12","10","","","","","test","happy","happy","h","true"
"null","<div style=""font-size:60px;"">+</div>","null","html-keyboard-response","73","147938","0.0-9.0-0.32","8ws817","Mon Feb 07 2022 20:11:27 GMT+0100 (CET)","2022","2","7","20","11","27","ID88","23","female","right","85","81","3","12","10","","","","","fixation","","","",""
"822","img/image_stim_h_stroop.png","72","image-keyboard-response","74","148760","0.0-9.0-1.32","8ws817","Mon Feb 07 2022 20:11:27 GMT+0100 (CET)","2022","2","7","20","11","27","ID88","23","female","right","85","81","3","12","10","","","","","test","happy","fear","h","true"
"null","<div style=""font-size:60px;"">+</div>","null","html-keyboard-response","75","149768","0.0-9.0-0.33","8ws817","Mon Feb 07 2022 20:11:27 GMT+0100 (CET)","2022","2","7","20","11","27","ID88","23","female","right","85","81","3","12","10","","","","","fixation","","","",""
"585.9999999999709","img/image_stim_f_stroop.png","70","image-keyboard-response","76","150357","0.0-9.0-1.33","8ws817","Mon Feb 07 2022 20:11:27 GMT+0100 (CET)","2022","2","7","20","11","27","ID88","23","female","right","85","81","3","12","10","","","","","test","fear","happy","f","true"
"null","<div style=""font-size:60px;"">+</div>","null","html-keyboard-response","77","152363","0.0-9.0-0.34","8ws817","Mon Feb 07 2022 20:11:27 GMT+0100 (CET)","2022","2","7","20","11","27","ID88","23","female","right","85","81","3","12","10","","","","","fixation","","","",""
"854.9999999999709","img/image_stim_h.png","72","image-keyboard-response","78","153220","0.0-9.0-1.34","8ws817","Mon Feb 07 2022 20:11:27 GMT+0100 (CET)","2022","2","7","20","11","27","ID88","23","female","right","85","81","3","12","10","","","","","test","happy","happy","h","true"
"null","<div style=""font-size:60px;"">+</div>","null","html-keyboard-response","79","154226","0.0-9.0-0.35","8ws817","Mon Feb 07 2022 20:11:27 GMT+0100 (CET)","2022","2","7","20","11","27","ID88","23","female","right","85","81","3","12","10","","","","","fixation","","","",""
"650","img/image_stim_f.png","70","image-keyboard-response","80","154879","0.0-9.0-1.35","8ws817","Mon Feb 07 2022 20:11:27 GMT+0100 (CET)","2022","2","7","20","11","27","ID88","23","female","right","85","81","3","12","10","","","","","test","fear","fear","f","true"
