"rt","stimulus","key_press","trial_type","trial_index","time_elapsed","internal_node_id","exp_id","Time","year","month","date","hour","minute","seconds","id","age","Gender","Handedness","mood","fresh","hunger","H_since_Sleep","H_since_Eat","responses","question_order","slider_start","response","test_part","face","word","correct_response","correct"
"1738.000000000001","<p>Welcome to this experiment on daily rhythms and cognition.</p><p>First you will be asked some questions about yourself.</p><p>Then a short experiment will measure your response time.</p><p>Take the test at different times of the day/night.</p><p>The test is anonymous, but comparing your data across time is important.</p><p>Therefore, please make up and remember a personal ID (two letters+ two numbers).</p><p>Use this ID whenever taking the test.</p><p><strong>Press any key to begin.</strong></p>","32","html-keyboard-response","0","1740","0.0-0.0","hanrxj","Fri Feb 19 2021 03:32:12 GMT+0900 (KST)","2021","2","19","3","32","12","cs12","21, 20","female","right","36","39","17","16","8","","","","","","","","",""
"9644","","","survey-text","1","11400","0.0-1.0","hanrxj","Fri Feb 19 2021 03:32:12 GMT+0900 (KST)","2021","2","19","3","32","12","cs12","21, 20","female","right","36","39","17","16","8","{""Q0"":""cs12""}","","","","","","","",""
"4216","","","survey-text","2","15620","0.0-2.0","hanrxj","Fri Feb 19 2021 03:32:12 GMT+0900 (KST)","2021","2","19","3","32","12","cs12","21, 20","female","right","36","39","17","16","8","{""Q0"":""21, 20""}","","","","","","","",""
"4342","","","survey-multi-select","3","19964","0.0-3.0","hanrxj","Fri Feb 19 2021 03:32:12 GMT+0900 (KST)","2021","2","19","3","32","12","cs12","21, 20","female","right","36","39","17","16","8","{""Gender"":[""female""],""Hand"":[""right""]}","[0,1]","","","","","","",""
"4469","<p>How Sad/Angry or Happy are you right now?</p>","","html-slider-response","4","24437","0.0-4.0","hanrxj","Fri Feb 19 2021 03:32:12 GMT+0900 (KST)","2021","2","19","3","32","12","cs12","21, 20","female","right","36","39","17","16","8","","","50","36","","","","",""
"3987","<p>How Tired/Sleepy/Distracted or Fresh/Awake/Alert are you right now?</p>","","html-slider-response","5","28425","0.0-5.0","hanrxj","Fri Feb 19 2021 03:32:12 GMT+0900 (KST)","2021","2","19","3","32","12","cs12","21, 20","female","right","36","39","17","16","8","","","50","39","","","","",""
"2857.9999999999964","<p>How Hungry or Satiated are you right now?</p>","","html-slider-response","6","31283","0.0-6.0","hanrxj","Fri Feb 19 2021 03:32:12 GMT+0900 (KST)","2021","2","19","3","32","12","cs12","21, 20","female","right","36","39","17","16","8","","","50","17","","","","",""
"96277.99999999999","","","survey-multi-select","7","127573","0.0-7.0","hanrxj","Fri Feb 19 2021 03:32:12 GMT+0900 (KST)","2021","2","19","3","32","12","cs12","21, 20","female","right","36","39","17","16","8","{""Sleep"":[""16""],""Eat"":[""8""]}","[0,1]","","","","","","",""
"9736","<p>In this experiment, a face and a word will appear in the center of the screen.</p><p>If the face is <strong>happy</strong>, press the letter <strong>H</strong> with <strong>right</strong> index finger.</p><p>If the face is <strong>fearful</strong>, press the letter <strong>F</strong> with <strong>left</strong> index finger.</p><p><strong>Ignore the written words</strong>. Respond as fast as possible while being correct. </p><div style='width: 900px;'><div style='float: left;'><img src='img/stimuli_stroop_happy.png'></img><p class='small'><strong>Press the H key for happy faces</strong></p></div><div class='float: right;'><img src='img/stimuli_stroop_fear.png'></img><p class='small'><strong>Press the F key for faces with fear</strong></p></div></div><p>If the screen turns blank, press <strong>SPACE</strong></p><p><strong>Press any key to begin.</strong></p>","32","html-keyboard-response","8","137311","0.0-8.0","hanrxj","Fri Feb 19 2021 03:32:12 GMT+0900 (KST)","2021","2","19","3","32","12","cs12","21, 20","female","right","36","39","17","16","8","","","","","","","","",""
"null","<div style=""font-size:60px;"">+</div>","null","html-keyboard-response","9","139814","0.0-9.0-0.0","hanrxj","Fri Feb 19 2021 03:32:12 GMT+0900 (KST)","2021","2","19","3","32","12","cs12","21, 20","female","right","36","39","17","16","8","","","","","fixation","","","",""
"862","img/image_stim_f_stroop.png","72","image-keyboard-response","10","140679","0.0-9.0-1.0","hanrxj","Fri Feb 19 2021 03:32:12 GMT+0900 (KST)","2021","2","19","3","32","12","cs12","21, 20","female","right","36","39","17","16","8","","","","","test","fear","happy","f","false"
"null","<div style=""font-size:60px;"">+</div>","null","html-keyboard-response","11","142183","0.0-9.0-0.1","hanrxj","Fri Feb 19 2021 03:32:12 GMT+0900 (KST)","2021","2","19","3","32","12","cs12","21, 20","female","right","36","39","17","16","8","","","","","fixation","","","",""
"552","img/image_stim_h.png","72","image-keyboard-response","12","142737","0.0-9.0-1.1","hanrxj","Fri Feb 19 2021 03:32:12 GMT+0900 (KST)","2021","2","19","3","32","12","cs12","21, 20","female","right","36","39","17","16","8","","","","","test","happy","happy","h","true"
"null","<div style=""font-size:60px;"">+</div>","null","html-keyboard-response","13","143739","0.0-9.0-0.2","hanrxj","Fri Feb 19 2021 03:32:12 GMT+0900 (KST)","2021","2","19","3","32","12","cs12","21, 20","female","right","36","39","17","16","8","","","","","fixation","","","",""
"1436","img/image_stim_h_stroop.png","72","image-keyboard-response","14","145178","0.0-9.0-1.2","hanrxj","Fri Feb 19 2021 03:32:12 GMT+0900 (KST)","2021","2","19","3","32","12","cs12","21, 20","female","right","36","39","17","16","8","","","","","test","happy","fear","h","true"
"null","<div style=""font-size:60px;"">+</div>","null","html-keyboard-response","15","145931","0.0-9.0-0.3","hanrxj","Fri Feb 19 2021 03:32:12 GMT+0900 (KST)","2021","2","19","3","32","12","cs12","21, 20","female","right","36","39","17","16","8","","","","","fixation","","","",""
"729.0000000000291","img/image_stim_f.png","70","image-keyboard-response","16","146662","0.0-9.0-1.3","hanrxj","Fri Feb 19 2021 03:32:12 GMT+0900 (KST)","2021","2","19","3","32","12","cs12","21, 20","female","right","36","39","17","16","8","","","","","test","fear","fear","f","true"
"null","<div style=""font-size:60px;"">+</div>","null","html-keyboard-response","17","147164","0.0-9.0-0.4","hanrxj","Fri Feb 19 2021 03:32:12 GMT+0900 (KST)","2021","2","19","3","32","12","cs12","21, 20","female","right","36","39","17","16","8","","","","","fixation","","","",""
"499","img/image_stim_h_stroop.png","72","image-keyboard-response","18","147665","0.0-9.0-1.4","hanrxj","Fri Feb 19 2021 03:32:12 GMT+0900 (KST)","2021","2","19","3","32","12","cs12","21, 20","female","right","36","39","17","16","8","","","","","test","happy","fear","h","true"
"null","<div style=""font-size:60px;"">+</div>","null","html-keyboard-response","19","148418","0.0-9.0-0.5","hanrxj","Fri Feb 19 2021 03:32:12 GMT+0900 (KST)","2021","2","19","3","32","12","cs12","21, 20","female","right","36","39","17","16","8","","","","","fixation","","","",""
"552","img/image_stim_h.png","72","image-keyboard-response","20","148972","0.0-9.0-1.5","hanrxj","Fri Feb 19 2021 03:32:12 GMT+0900 (KST)","2021","2","19","3","32","12","cs12","21, 20","female","right","36","39","17","16","8","","","","","test","happy","happy","h","true"
"null","<div style=""font-size:60px;"">+</div>","null","html-keyboard-response","21","150725","0.0-9.0-0.6","hanrxj","Fri Feb 19 2021 03:32:12 GMT+0900 (KST)","2021","2","19","3","32","12","cs12","21, 20","female","right","36","39","17","16","8","","","","","fixation","","","",""
"567.0000000000291","img/image_stim_f.png","70","image-keyboard-response","22","151293","0.0-9.0-1.6","hanrxj","Fri Feb 19 2021 03:32:12 GMT+0900 (KST)","2021","2","19","3","32","12","cs12","21, 20","female","right","36","39","17","16","8","","","","","test","fear","fear","f","true"
"null","<div style=""font-size:60px;"">+</div>","null","html-keyboard-response","23","152046","0.0-9.0-0.7","hanrxj","Fri Feb 19 2021 03:32:12 GMT+0900 (KST)","2021","2","19","3","32","12","cs12","21, 20","female","right","36","39","17","16","8","","","","","fixation","","","",""
"377","img/image_stim_f_stroop.png","70","image-keyboard-response","24","152424","0.0-9.0-1.7","hanrxj","Fri Feb 19 2021 03:32:12 GMT+0900 (KST)","2021","2","19","3","32","12","cs12","21, 20","female","right","36","39","17","16","8","","","","","test","fear","happy","f","true"
"null","<div style=""font-size:60px;"">+</div>","null","html-keyboard-response","25","153427","0.0-9.0-0.8","hanrxj","Fri Feb 19 2021 03:32:12 GMT+0900 (KST)","2021","2","19","3","32","12","cs12","21, 20","female","right","36","39","17","16","8","","","","","fixation","","","",""
"526","img/image_stim_h_stroop.png","72","image-keyboard-response","26","153955","0.0-9.0-1.8","hanrxj","Fri Feb 19 2021 03:32:12 GMT+0900 (KST)","2021","2","19","3","32","12","cs12","21, 20","female","right","36","39","17","16","8","","","","","test","happy","fear","h","true"
"null","<div style=""font-size:60px;"">+</div>","null","html-keyboard-response","27","155208","0.0-9.0-0.9","hanrxj","Fri Feb 19 2021 03:32:12 GMT+0900 (KST)","2021","2","19","3","32","12","cs12","21, 20","female","right","36","39","17","16","8","","","","","fixation","","","",""
"550","img/image_stim_f.png","70","image-keyboard-response","28","155760","0.0-9.0-1.9","hanrxj","Fri Feb 19 2021 03:32:12 GMT+0900 (KST)","2021","2","19","3","32","12","cs12","21, 20","female","right","36","39","17","16","8","","","","","test","fear","fear","f","true"
"null","<div style=""font-size:60px;"">+</div>","null","html-keyboard-response","29","157763","0.0-9.0-0.10","hanrxj","Fri Feb 19 2021 03:32:12 GMT+0900 (KST)","2021","2","19","3","32","12","cs12","21, 20","female","right","36","39","17","16","8","","","","","fixation","","","",""
"485","img/image_stim_h.png","72","image-keyboard-response","30","158249","0.0-9.0-1.10","hanrxj","Fri Feb 19 2021 03:32:12 GMT+0900 (KST)","2021","2","19","3","32","12","cs12","21, 20","female","right","36","39","17","16","8","","","","","test","happy","happy","h","true"
"null","<div style=""font-size:60px;"">+</div>","null","html-keyboard-response","31","158502","0.0-9.0-0.11","hanrxj","Fri Feb 19 2021 03:32:12 GMT+0900 (KST)","2021","2","19","3","32","12","cs12","21, 20","female","right","36","39","17","16","8","","","","","fixation","","","",""
"553","img/image_stim_f_stroop.png","70","image-keyboard-response","32","159057","0.0-9.0-1.11","hanrxj","Fri Feb 19 2021 03:32:12 GMT+0900 (KST)","2021","2","19","3","32","12","cs12","21, 20","female","right","36","39","17","16","8","","","","","test","fear","happy","f","true"
"null","<div style=""font-size:60px;"">+</div>","null","html-keyboard-response","33","160810","0.0-9.0-0.12","hanrxj","Fri Feb 19 2021 03:32:12 GMT+0900 (KST)","2021","2","19","3","32","12","cs12","21, 20","female","right","36","39","17","16","8","","","","","fixation","","","",""
"547.0000000000291","img/image_stim_f.png","70","image-keyboard-response","34","161358","0.0-9.0-1.12","hanrxj","Fri Feb 19 2021 03:32:12 GMT+0900 (KST)","2021","2","19","3","32","12","cs12","21, 20","female","right","36","39","17","16","8","","","","","test","fear","fear","f","true"
"null","<div style=""font-size:60px;"">+</div>","null","html-keyboard-response","35","161861","0.0-9.0-0.13","hanrxj","Fri Feb 19 2021 03:32:12 GMT+0900 (KST)","2021","2","19","3","32","12","cs12","21, 20","female","right","36","39","17","16","8","","","","","fixation","","","",""
"585","img/image_stim_h_stroop.png","72","image-keyboard-response","36","162448","0.0-9.0-1.13","hanrxj","Fri Feb 19 2021 03:32:12 GMT+0900 (KST)","2021","2","19","3","32","12","cs12","21, 20","female","right","36","39","17","16","8","","","","","test","happy","fear","h","true"
"null","<div style=""font-size:60px;"">+</div>","null","html-keyboard-response","37","163201","0.0-9.0-0.14","hanrxj","Fri Feb 19 2021 03:32:12 GMT+0900 (KST)","2021","2","19","3","32","12","cs12","21, 20","female","right","36","39","17","16","8","","","","","fixation","","","",""
"566.0000000000291","img/image_stim_h.png","72","image-keyboard-response","38","163769","0.0-9.0-1.14","hanrxj","Fri Feb 19 2021 03:32:12 GMT+0900 (KST)","2021","2","19","3","32","12","cs12","21, 20","female","right","36","39","17","16","8","","","","","test","happy","happy","h","true"
"null","<div style=""font-size:60px;"">+</div>","null","html-keyboard-response","39","165771","0.0-9.0-0.15","hanrxj","Fri Feb 19 2021 03:32:12 GMT+0900 (KST)","2021","2","19","3","32","12","cs12","21, 20","female","right","36","39","17","16","8","","","","","fixation","","","",""
"557","img/image_stim_f_stroop.png","70","image-keyboard-response","40","166329","0.0-9.0-1.15","hanrxj","Fri Feb 19 2021 03:32:12 GMT+0900 (KST)","2021","2","19","3","32","12","cs12","21, 20","female","right","36","39","17","16","8","","","","","test","fear","happy","f","true"
"null","<div style=""font-size:60px;"">+</div>","null","html-keyboard-response","41","167582","0.0-9.0-0.16","hanrxj","Fri Feb 19 2021 03:32:12 GMT+0900 (KST)","2021","2","19","3","32","12","cs12","21, 20","female","right","36","39","17","16","8","","","","","fixation","","","",""
"629","img/image_stim_h_stroop.png","72","image-keyboard-response","42","168212","0.0-9.0-1.16","hanrxj","Fri Feb 19 2021 03:32:12 GMT+0900 (KST)","2021","2","19","3","32","12","cs12","21, 20","female","right","36","39","17","16","8","","","","","test","happy","fear","h","true"
"null","<div style=""font-size:60px;"">+</div>","null","html-keyboard-response","43","168715","0.0-9.0-0.17","hanrxj","Fri Feb 19 2021 03:32:12 GMT+0900 (KST)","2021","2","19","3","32","12","cs12","21, 20","female","right","36","39","17","16","8","","","","","fixation","","","",""
"573","img/image_stim_f.png","70","image-keyboard-response","44","169289","0.0-9.0-1.17","hanrxj","Fri Feb 19 2021 03:32:12 GMT+0900 (KST)","2021","2","19","3","32","12","cs12","21, 20","female","right","36","39","17","16","8","","","","","test","fear","fear","f","true"
"null","<div style=""font-size:60px;"">+</div>","null","html-keyboard-response","45","170542","0.0-9.0-0.18","hanrxj","Fri Feb 19 2021 03:32:12 GMT+0900 (KST)","2021","2","19","3","32","12","cs12","21, 20","female","right","36","39","17","16","8","","","","","fixation","","","",""
"696.9999999999709","img/image_stim_f_stroop.png","70","image-keyboard-response","46","171240","0.0-9.0-1.18","hanrxj","Fri Feb 19 2021 03:32:12 GMT+0900 (KST)","2021","2","19","3","32","12","cs12","21, 20","female","right","36","39","17","16","8","","","","","test","fear","happy","f","true"
"null","<div style=""font-size:60px;"">+</div>","null","html-keyboard-response","47","173243","0.0-9.0-0.19","hanrxj","Fri Feb 19 2021 03:32:12 GMT+0900 (KST)","2021","2","19","3","32","12","cs12","21, 20","female","right","36","39","17","16","8","","","","","fixation","","","",""
"591.9999999999709","img/image_stim_h.png","72","image-keyboard-response","48","173837","0.0-9.0-1.19","hanrxj","Fri Feb 19 2021 03:32:12 GMT+0900 (KST)","2021","2","19","3","32","12","cs12","21, 20","female","right","36","39","17","16","8","","","","","test","happy","happy","h","true"
"null","<div style=""font-size:60px;"">+</div>","null","html-keyboard-response","49","175340","0.0-9.0-0.20","hanrxj","Fri Feb 19 2021 03:32:12 GMT+0900 (KST)","2021","2","19","3","32","12","cs12","21, 20","female","right","36","39","17","16","8","","","","","fixation","","","",""
"548","img/image_stim_h_stroop.png","72","image-keyboard-response","50","175889","0.0-9.0-1.20","hanrxj","Fri Feb 19 2021 03:32:12 GMT+0900 (KST)","2021","2","19","3","32","12","cs12","21, 20","female","right","36","39","17","16","8","","","","","test","happy","fear","h","true"
"null","<div style=""font-size:60px;"">+</div>","null","html-keyboard-response","51","176141","0.0-9.0-0.21","hanrxj","Fri Feb 19 2021 03:32:12 GMT+0900 (KST)","2021","2","19","3","32","12","cs12","21, 20","female","right","36","39","17","16","8","","","","","fixation","","","",""
"637","img/image_stim_h.png","72","image-keyboard-response","52","176780","0.0-9.0-1.21","hanrxj","Fri Feb 19 2021 03:32:12 GMT+0900 (KST)","2021","2","19","3","32","12","cs12","21, 20","female","right","36","39","17","16","8","","","","","test","happy","happy","h","true"
"null","<div style=""font-size:60px;"">+</div>","null","html-keyboard-response","53","178784","0.0-9.0-0.22","hanrxj","Fri Feb 19 2021 03:32:12 GMT+0900 (KST)","2021","2","19","3","32","12","cs12","21, 20","female","right","36","39","17","16","8","","","","","fixation","","","",""
"483","img/image_stim_f_stroop.png","70","image-keyboard-response","54","179268","0.0-9.0-1.22","hanrxj","Fri Feb 19 2021 03:32:12 GMT+0900 (KST)","2021","2","19","3","32","12","cs12","21, 20","female","right","36","39","17","16","8","","","","","test","fear","happy","f","true"
"null","<div style=""font-size:60px;"">+</div>","null","html-keyboard-response","55","180271","0.0-9.0-0.23","hanrxj","Fri Feb 19 2021 03:32:12 GMT+0900 (KST)","2021","2","19","3","32","12","cs12","21, 20","female","right","36","39","17","16","8","","","","","fixation","","","",""
"405","img/image_stim_f.png","70","image-keyboard-response","56","180677","0.0-9.0-1.23","hanrxj","Fri Feb 19 2021 03:32:12 GMT+0900 (KST)","2021","2","19","3","32","12","cs12","21, 20","female","right","36","39","17","16","8","","","","","test","fear","fear","f","true"
"null","<div style=""font-size:60px;"">+</div>","null","html-keyboard-response","57","182431","0.0-9.0-0.24","hanrxj","Fri Feb 19 2021 03:32:12 GMT+0900 (KST)","2021","2","19","3","32","12","cs12","21, 20","female","right","36","39","17","16","8","","","","","fixation","","","",""
"605.0000000000291","img/image_stim_f_stroop.png","70","image-keyboard-response","58","183037","0.0-9.0-1.24","hanrxj","Fri Feb 19 2021 03:32:12 GMT+0900 (KST)","2021","2","19","3","32","12","cs12","21, 20","female","right","36","39","17","16","8","","","","","test","fear","happy","f","true"
"null","<div style=""font-size:60px;"">+</div>","null","html-keyboard-response","59","184290","0.0-9.0-0.25","hanrxj","Fri Feb 19 2021 03:32:12 GMT+0900 (KST)","2021","2","19","3","32","12","cs12","21, 20","female","right","36","39","17","16","8","","","","","fixation","","","",""
"431","img/image_stim_f.png","70","image-keyboard-response","60","184723","0.0-9.0-1.25","hanrxj","Fri Feb 19 2021 03:32:12 GMT+0900 (KST)","2021","2","19","3","32","12","cs12","21, 20","female","right","36","39","17","16","8","","","","","test","fear","fear","f","true"
"null","<div style=""font-size:60px;"">+</div>","null","html-keyboard-response","61","186726","0.0-9.0-0.26","hanrxj","Fri Feb 19 2021 03:32:12 GMT+0900 (KST)","2021","2","19","3","32","12","cs12","21, 20","female","right","36","39","17","16","8","","","","","fixation","","","",""
"428.0000000000291","img/image_stim_h_stroop.png","72","image-keyboard-response","62","187156","0.0-9.0-1.26","hanrxj","Fri Feb 19 2021 03:32:12 GMT+0900 (KST)","2021","2","19","3","32","12","cs12","21, 20","female","right","36","39","17","16","8","","","","","test","happy","fear","h","true"
"null","<div style=""font-size:60px;"">+</div>","null","html-keyboard-response","63","187659","0.0-9.0-0.27","hanrxj","Fri Feb 19 2021 03:32:12 GMT+0900 (KST)","2021","2","19","3","32","12","cs12","21, 20","female","right","36","39","17","16","8","","","","","fixation","","","",""
"432","img/image_stim_h.png","72","image-keyboard-response","64","188093","0.0-9.0-1.27","hanrxj","Fri Feb 19 2021 03:32:12 GMT+0900 (KST)","2021","2","19","3","32","12","cs12","21, 20","female","right","36","39","17","16","8","","","","","test","happy","happy","h","true"
"null","<div style=""font-size:60px;"">+</div>","null","html-keyboard-response","65","188596","0.0-9.0-0.28","hanrxj","Fri Feb 19 2021 03:32:12 GMT+0900 (KST)","2021","2","19","3","32","12","cs12","21, 20","female","right","36","39","17","16","8","","","","","fixation","","","",""
"418","img/image_stim_h.png","72","image-keyboard-response","66","189015","0.0-9.0-1.28","hanrxj","Fri Feb 19 2021 03:32:12 GMT+0900 (KST)","2021","2","19","3","32","12","cs12","21, 20","female","right","36","39","17","16","8","","","","","test","happy","happy","h","true"
"null","<div style=""font-size:60px;"">+</div>","null","html-keyboard-response","67","190019","0.0-9.0-0.29","hanrxj","Fri Feb 19 2021 03:32:12 GMT+0900 (KST)","2021","2","19","3","32","12","cs12","21, 20","female","right","36","39","17","16","8","","","","","fixation","","","",""
"540.0000000000291","img/image_stim_f.png","70","image-keyboard-response","68","190561","0.0-9.0-1.29","hanrxj","Fri Feb 19 2021 03:32:12 GMT+0900 (KST)","2021","2","19","3","32","12","cs12","21, 20","female","right","36","39","17","16","8","","","","","test","fear","fear","f","true"
"null","<div style=""font-size:60px;"">+</div>","null","html-keyboard-response","69","192064","0.0-9.0-0.30","hanrxj","Fri Feb 19 2021 03:32:12 GMT+0900 (KST)","2021","2","19","3","32","12","cs12","21, 20","female","right","36","39","17","16","8","","","","","fixation","","","",""
"560.0000000000291","img/image_stim_h_stroop.png","72","image-keyboard-response","70","192626","0.0-9.0-1.30","hanrxj","Fri Feb 19 2021 03:32:12 GMT+0900 (KST)","2021","2","19","3","32","12","cs12","21, 20","female","right","36","39","17","16","8","","","","","test","happy","fear","h","true"
"null","<div style=""font-size:60px;"">+</div>","null","html-keyboard-response","71","193629","0.0-9.0-0.31","hanrxj","Fri Feb 19 2021 03:32:12 GMT+0900 (KST)","2021","2","19","3","32","12","cs12","21, 20","female","right","36","39","17","16","8","","","","","fixation","","","",""
"613","img/image_stim_f_stroop.png","70","image-keyboard-response","72","194244","0.0-9.0-1.31","hanrxj","Fri Feb 19 2021 03:32:12 GMT+0900 (KST)","2021","2","19","3","32","12","cs12","21, 20","female","right","36","39","17","16","8","","","","","test","fear","happy","f","true"
"null","<div style=""font-size:60px;"">+</div>","null","html-keyboard-response","73","195498","0.0-9.0-0.32","hanrxj","Fri Feb 19 2021 03:32:12 GMT+0900 (KST)","2021","2","19","3","32","12","cs12","21, 20","female","right","36","39","17","16","8","","","","","fixation","","","",""
"490.0000000000291","img/image_stim_h_stroop.png","72","image-keyboard-response","74","195989","0.0-9.0-1.32","hanrxj","Fri Feb 19 2021 03:32:12 GMT+0900 (KST)","2021","2","19","3","32","12","cs12","21, 20","female","right","36","39","17","16","8","","","","","test","happy","fear","h","true"
"null","<div style=""font-size:60px;"">+</div>","null","html-keyboard-response","75","196743","0.0-9.0-0.33","hanrxj","Fri Feb 19 2021 03:32:12 GMT+0900 (KST)","2021","2","19","3","32","12","cs12","21, 20","female","right","36","39","17","16","8","","","","","fixation","","","",""
"530","img/image_stim_h.png","72","image-keyboard-response","76","197274","0.0-9.0-1.33","hanrxj","Fri Feb 19 2021 03:32:12 GMT+0900 (KST)","2021","2","19","3","32","12","cs12","21, 20","female","right","36","39","17","16","8","","","","","test","happy","happy","h","true"
"null","<div style=""font-size:60px;"">+</div>","null","html-keyboard-response","77","199278","0.0-9.0-0.34","hanrxj","Fri Feb 19 2021 03:32:12 GMT+0900 (KST)","2021","2","19","3","32","12","cs12","21, 20","female","right","36","39","17","16","8","","","","","fixation","","","",""
"508.0000000000291","img/image_stim_f.png","70","image-keyboard-response","78","199787","0.0-9.0-1.34","hanrxj","Fri Feb 19 2021 03:32:12 GMT+0900 (KST)","2021","2","19","3","32","12","cs12","21, 20","female","right","36","39","17","16","8","","","","","test","fear","fear","f","true"
"null","<div style=""font-size:60px;"">+</div>","null","html-keyboard-response","79","201291","0.0-9.0-0.35","hanrxj","Fri Feb 19 2021 03:32:12 GMT+0900 (KST)","2021","2","19","3","32","12","cs12","21, 20","female","right","36","39","17","16","8","","","","","fixation","","","",""
"434","img/image_stim_f_stroop.png","70","image-keyboard-response","80","201726","0.0-9.0-1.35","hanrxj","Fri Feb 19 2021 03:32:12 GMT+0900 (KST)","2021","2","19","3","32","12","cs12","21, 20","female","right","36","39","17","16","8","","","","","test","fear","happy","f","true"
