"rt","stimulus","key_press","trial_type","trial_index","time_elapsed","internal_node_id","exp_id","Time","year","month","date","hour","minute","seconds","id","age","Gender","Handedness","mood","fresh","hunger","H_since_Sleep","H_since_Eat","responses","question_order","slider_start","response","test_part","face","word","correct_response","correct"
"17029.58499999977","<p>Welcome to this experiment on daily rhythms and cognition.</p><p>First you will be asked some questions about yourself.</p><p>Then a short experiment will measure your response time.</p><p>Take the test at different times of the day/night.</p><p>The test is anonymous, but comparing your data across time is important.</p><p>Therefore, please make up and remember a personal ID (two letters+ two numbers).</p><p>Use this ID whenever taking the test.</p><p><strong>Press any key to begin.</strong></p>","32","html-keyboard-response","0","17033","0.0-0.0","huh45o","Mon Feb 08 2021 09:46:45 GMT+0100 (Centraleuropæisk normaltid)","2021","2","8","9","46","45","mi99","21","female","right","50","34","43","3","2","","","","","","","","",""
"13044.324999999844","","","survey-text","1","30086","0.0-1.0","huh45o","Mon Feb 08 2021 09:46:45 GMT+0100 (Centraleuropæisk normaltid)","2021","2","8","9","46","45","mi99","21","female","right","50","34","43","3","2","{""Q0"":""mi99""}","","","","","","","",""
"5625.320000000098","","","survey-text","2","35715","0.0-2.0","huh45o","Mon Feb 08 2021 09:46:45 GMT+0100 (Centraleuropæisk normaltid)","2021","2","8","9","46","45","mi99","21","female","right","50","34","43","3","2","{""Q0"":""21""}","","","","","","","",""
"3429.289999999586","","","survey-multi-select","3","39149","0.0-3.0","huh45o","Mon Feb 08 2021 09:46:45 GMT+0100 (Centraleuropæisk normaltid)","2021","2","8","9","46","45","mi99","21","female","right","50","34","43","3","2","{""Gender"":[""female""],""Hand"":[""right""]}","[0,1]","","","","","","",""
"10740.319999999876","<p>How Sad/Angry or Happy are you right now?</p>","","html-slider-response","4","49893","0.0-4.0","huh45o","Mon Feb 08 2021 09:46:45 GMT+0100 (Centraleuropæisk normaltid)","2021","2","8","9","46","45","mi99","21","female","right","50","34","43","3","2","","","50","50","","","","",""
"7807.589999999887","<p>How Tired/Sleepy/Distracted or Fresh/Awake/Alert are you right now?</p>","","html-slider-response","5","57702","0.0-5.0","huh45o","Mon Feb 08 2021 09:46:45 GMT+0100 (Centraleuropæisk normaltid)","2021","2","8","9","46","45","mi99","21","female","right","50","34","43","3","2","","","50","34","","","","",""
"13317.185000000347","<p>How Hungry or Satiated are you right now?</p>","","html-slider-response","6","71021","0.0-6.0","huh45o","Mon Feb 08 2021 09:46:45 GMT+0100 (Centraleuropæisk normaltid)","2021","2","8","9","46","45","mi99","21","female","right","50","34","43","3","2","","","50","43","","","","",""
"14719.240000000354","","","survey-multi-select","7","85759","0.0-7.0","huh45o","Mon Feb 08 2021 09:46:45 GMT+0100 (Centraleuropæisk normaltid)","2021","2","8","9","46","45","mi99","21","female","right","50","34","43","3","2","{""Sleep"":[""3""],""Eat"":[""2""]}","[0,1]","","","","","","",""
"23469.729999999792","<p>In this experiment, a face and a word will appear in the center of the screen.</p><p>If the face is <strong>happy</strong>, press the letter <strong>H</strong> with <strong>right</strong> index finger.</p><p>If the face is <strong>fearful</strong>, press the letter <strong>F</strong> with <strong>left</strong> index finger.</p><p><strong>Ignore the written words</strong>. Respond as fast as possible while being correct. </p><div style='width: 900px;'><div style='float: left;'><img src='img/stimuli_stroop_happy.png'></img><p class='small'><strong>Press the H key for happy faces</strong></p></div><div class='float: right;'><img src='img/stimuli_stroop_fear.png'></img><p class='small'><strong>Press the F key for faces with fear</strong></p></div></div><p>If the screen turns blank, press <strong>SPACE</strong></p><p><strong>Press any key to begin.</strong></p>","32","html-keyboard-response","8","109231","0.0-8.0","huh45o","Mon Feb 08 2021 09:46:45 GMT+0100 (Centraleuropæisk normaltid)","2021","2","8","9","46","45","mi99","21","female","right","50","34","43","3","2","","","","","","","","",""
"null","<div style=""font-size:60px;"">+</div>","null","html-keyboard-response","9","111493","0.0-9.0-0.0","huh45o","Mon Feb 08 2021 09:46:45 GMT+0100 (Centraleuropæisk normaltid)","2021","2","8","9","46","45","mi99","21","female","right","50","34","43","3","2","","","","","fixation","","","",""
"4439.304999999877","img/image_stim_f.png","32","image-keyboard-response","10","115939","0.0-9.0-1.0","huh45o","Mon Feb 08 2021 09:46:45 GMT+0100 (Centraleuropæisk normaltid)","2021","2","8","9","46","45","mi99","21","female","right","50","34","43","3","2","","","","","test","fear","fear","f","false"
"null","<div style=""font-size:60px;"">+</div>","null","html-keyboard-response","11","116447","0.0-9.0-0.1","huh45o","Mon Feb 08 2021 09:46:45 GMT+0100 (Centraleuropæisk normaltid)","2021","2","8","9","46","45","mi99","21","female","right","50","34","43","3","2","","","","","fixation","","","",""
"null","img/image_stim_f_stroop.png","null","image-keyboard-response","12","121451","0.0-9.0-1.1","huh45o","Mon Feb 08 2021 09:46:45 GMT+0100 (Centraleuropæisk normaltid)","2021","2","8","9","46","45","mi99","21","female","right","50","34","43","3","2","","","","","test","fear","happy","f","false"
"null","<div style=""font-size:60px;"">+</div>","null","html-keyboard-response","13","122210","0.0-9.0-0.2","huh45o","Mon Feb 08 2021 09:46:45 GMT+0100 (Centraleuropæisk normaltid)","2021","2","8","9","46","45","mi99","21","female","right","50","34","43","3","2","","","","","fixation","","","",""
"1560.8349999997736","img/image_stim_h.png","32","image-keyboard-response","14","123772","0.0-9.0-1.2","huh45o","Mon Feb 08 2021 09:46:45 GMT+0100 (Centraleuropæisk normaltid)","2021","2","8","9","46","45","mi99","21","female","right","50","34","43","3","2","","","","","test","happy","happy","h","false"
"null","<div style=""font-size:60px;"">+</div>","null","html-keyboard-response","15","125778","0.0-9.0-0.3","huh45o","Mon Feb 08 2021 09:46:45 GMT+0100 (Centraleuropæisk normaltid)","2021","2","8","9","46","45","mi99","21","female","right","50","34","43","3","2","","","","","fixation","","","",""
"1145.010000000184","img/image_stim_h_stroop.png","32","image-keyboard-response","16","126925","0.0-9.0-1.3","huh45o","Mon Feb 08 2021 09:46:45 GMT+0100 (Centraleuropæisk normaltid)","2021","2","8","9","46","45","mi99","21","female","right","50","34","43","3","2","","","","","test","happy","fear","h","false"
"null","<div style=""font-size:60px;"">+</div>","null","html-keyboard-response","17","128183","0.0-9.0-0.4","huh45o","Mon Feb 08 2021 09:46:45 GMT+0100 (Centraleuropæisk normaltid)","2021","2","8","9","46","45","mi99","21","female","right","50","34","43","3","2","","","","","fixation","","","",""
"1221.5049999999756","img/image_stim_f.png","70","image-keyboard-response","18","129421","0.0-9.0-1.4","huh45o","Mon Feb 08 2021 09:46:45 GMT+0100 (Centraleuropæisk normaltid)","2021","2","8","9","46","45","mi99","21","female","right","50","34","43","3","2","","","","","test","fear","fear","f","true"
"null","<div style=""font-size:60px;"">+</div>","null","html-keyboard-response","19","131180","0.0-9.0-0.5","huh45o","Mon Feb 08 2021 09:46:45 GMT+0100 (Centraleuropæisk normaltid)","2021","2","8","9","46","45","mi99","21","female","right","50","34","43","3","2","","","","","fixation","","","",""
"242.2599999999802","img/image_stim_h_stroop.png","32","image-keyboard-response","20","131424","0.0-9.0-1.5","huh45o","Mon Feb 08 2021 09:46:45 GMT+0100 (Centraleuropæisk normaltid)","2021","2","8","9","46","45","mi99","21","female","right","50","34","43","3","2","","","","","test","happy","fear","h","false"
"null","<div style=""font-size:60px;"">+</div>","null","html-keyboard-response","21","132932","0.0-9.0-0.6","huh45o","Mon Feb 08 2021 09:46:45 GMT+0100 (Centraleuropæisk normaltid)","2021","2","8","9","46","45","mi99","21","female","right","50","34","43","3","2","","","","","fixation","","","",""
"622.6900000001478","img/image_stim_h.png","72","image-keyboard-response","22","133556","0.0-9.0-1.6","huh45o","Mon Feb 08 2021 09:46:45 GMT+0100 (Centraleuropæisk normaltid)","2021","2","8","9","46","45","mi99","21","female","right","50","34","43","3","2","","","","","test","happy","happy","h","true"
"null","<div style=""font-size:60px;"">+</div>","null","html-keyboard-response","23","135568","0.0-9.0-0.7","huh45o","Mon Feb 08 2021 09:46:45 GMT+0100 (Centraleuropæisk normaltid)","2021","2","8","9","46","45","mi99","21","female","right","50","34","43","3","2","","","","","fixation","","","",""
"1289.890000000014","img/image_stim_f_stroop.png","70","image-keyboard-response","24","136860","0.0-9.0-1.7","huh45o","Mon Feb 08 2021 09:46:45 GMT+0100 (Centraleuropæisk normaltid)","2021","2","8","9","46","45","mi99","21","female","right","50","34","43","3","2","","","","","test","fear","happy","f","true"
"null","<div style=""font-size:60px;"">+</div>","null","html-keyboard-response","25","137118","0.0-9.0-0.8","huh45o","Mon Feb 08 2021 09:46:45 GMT+0100 (Centraleuropæisk normaltid)","2021","2","8","9","46","45","mi99","21","female","right","50","34","43","3","2","","","","","fixation","","","",""
"2227.739999999816","img/image_stim_h_stroop.png","72","image-keyboard-response","26","139347","0.0-9.0-1.8","huh45o","Mon Feb 08 2021 09:46:45 GMT+0100 (Centraleuropæisk normaltid)","2021","2","8","9","46","45","mi99","21","female","right","50","34","43","3","2","","","","","test","happy","fear","h","true"
"null","<div style=""font-size:60px;"">+</div>","null","html-keyboard-response","27","140605","0.0-9.0-0.9","huh45o","Mon Feb 08 2021 09:46:45 GMT+0100 (Centraleuropæisk normaltid)","2021","2","8","9","46","45","mi99","21","female","right","50","34","43","3","2","","","","","fixation","","","",""
"1316.8100000002596","img/image_stim_f.png","70","image-keyboard-response","28","141924","0.0-9.0-1.9","huh45o","Mon Feb 08 2021 09:46:45 GMT+0100 (Centraleuropæisk normaltid)","2021","2","8","9","46","45","mi99","21","female","right","50","34","43","3","2","","","","","test","fear","fear","f","true"
"null","<div style=""font-size:60px;"">+</div>","null","html-keyboard-response","29","142429","0.0-9.0-0.10","huh45o","Mon Feb 08 2021 09:46:45 GMT+0100 (Centraleuropæisk normaltid)","2021","2","8","9","46","45","mi99","21","female","right","50","34","43","3","2","","","","","fixation","","","",""
"1046.0999999995693","img/image_stim_f_stroop.png","70","image-keyboard-response","30","143476","0.0-9.0-1.10","huh45o","Mon Feb 08 2021 09:46:45 GMT+0100 (Centraleuropæisk normaltid)","2021","2","8","9","46","45","mi99","21","female","right","50","34","43","3","2","","","","","test","fear","happy","f","true"
"null","<div style=""font-size:60px;"">+</div>","null","html-keyboard-response","31","144482","0.0-9.0-0.11","huh45o","Mon Feb 08 2021 09:46:45 GMT+0100 (Centraleuropæisk normaltid)","2021","2","8","9","46","45","mi99","21","female","right","50","34","43","3","2","","","","","fixation","","","",""
"899.8500000002387","img/image_stim_h.png","72","image-keyboard-response","32","145383","0.0-9.0-1.11","huh45o","Mon Feb 08 2021 09:46:45 GMT+0100 (Centraleuropæisk normaltid)","2021","2","8","9","46","45","mi99","21","female","right","50","34","43","3","2","","","","","test","happy","happy","h","true"
"null","<div style=""font-size:60px;"">+</div>","null","html-keyboard-response","33","146388","0.0-9.0-0.12","huh45o","Mon Feb 08 2021 09:46:45 GMT+0100 (Centraleuropæisk normaltid)","2021","2","8","9","46","45","mi99","21","female","right","50","34","43","3","2","","","","","fixation","","","",""
"2190.465000000142","img/image_stim_f.png","32","image-keyboard-response","34","148579","0.0-9.0-1.12","huh45o","Mon Feb 08 2021 09:46:45 GMT+0100 (Centraleuropæisk normaltid)","2021","2","8","9","46","45","mi99","21","female","right","50","34","43","3","2","","","","","test","fear","fear","f","false"
"null","<div style=""font-size:60px;"">+</div>","null","html-keyboard-response","35","149335","0.0-9.0-0.13","huh45o","Mon Feb 08 2021 09:46:45 GMT+0100 (Centraleuropæisk normaltid)","2021","2","8","9","46","45","mi99","21","female","right","50","34","43","3","2","","","","","fixation","","","",""
"790.5799999998708","img/image_stim_h_stroop.png","32","image-keyboard-response","36","150127","0.0-9.0-1.13","huh45o","Mon Feb 08 2021 09:46:45 GMT+0100 (Centraleuropæisk normaltid)","2021","2","8","9","46","45","mi99","21","female","right","50","34","43","3","2","","","","","test","happy","fear","h","false"
"null","<div style=""font-size:60px;"">+</div>","null","html-keyboard-response","37","151132","0.0-9.0-0.14","huh45o","Mon Feb 08 2021 09:46:45 GMT+0100 (Centraleuropæisk normaltid)","2021","2","8","9","46","45","mi99","21","female","right","50","34","43","3","2","","","","","fixation","","","",""
"382.6750000002794","img/image_stim_f_stroop.png","32","image-keyboard-response","38","151516","0.0-9.0-1.14","huh45o","Mon Feb 08 2021 09:46:45 GMT+0100 (Centraleuropæisk normaltid)","2021","2","8","9","46","45","mi99","21","female","right","50","34","43","3","2","","","","","test","fear","happy","f","false"
"null","<div style=""font-size:60px;"">+</div>","null","html-keyboard-response","39","153524","0.0-9.0-0.15","huh45o","Mon Feb 08 2021 09:46:45 GMT+0100 (Centraleuropæisk normaltid)","2021","2","8","9","46","45","mi99","21","female","right","50","34","43","3","2","","","","","fixation","","","",""
"266.17000000033295","img/image_stim_h.png","32","image-keyboard-response","40","153792","0.0-9.0-1.15","huh45o","Mon Feb 08 2021 09:46:45 GMT+0100 (Centraleuropæisk normaltid)","2021","2","8","9","46","45","mi99","21","female","right","50","34","43","3","2","","","","","test","happy","happy","h","false"
"null","<div style=""font-size:60px;"">+</div>","null","html-keyboard-response","41","155301","0.0-9.0-0.16","huh45o","Mon Feb 08 2021 09:46:45 GMT+0100 (Centraleuropæisk normaltid)","2021","2","8","9","46","45","mi99","21","female","right","50","34","43","3","2","","","","","fixation","","","",""
"168.8100000001432","img/image_stim_h_stroop.png","32","image-keyboard-response","42","155471","0.0-9.0-1.16","huh45o","Mon Feb 08 2021 09:46:45 GMT+0100 (Centraleuropæisk normaltid)","2021","2","8","9","46","45","mi99","21","female","right","50","34","43","3","2","","","","","test","happy","fear","h","false"
"null","<div style=""font-size:60px;"">+</div>","null","html-keyboard-response","43","157230","0.0-9.0-0.17","huh45o","Mon Feb 08 2021 09:46:45 GMT+0100 (Centraleuropæisk normaltid)","2021","2","8","9","46","45","mi99","21","female","right","50","34","43","3","2","","","","","fixation","","","",""
"1377.1649999998917","img/image_stim_f.png","70","image-keyboard-response","44","158608","0.0-9.0-1.17","huh45o","Mon Feb 08 2021 09:46:45 GMT+0100 (Centraleuropæisk normaltid)","2021","2","8","9","46","45","mi99","21","female","right","50","34","43","3","2","","","","","test","fear","fear","f","true"
"null","<div style=""font-size:60px;"">+</div>","null","html-keyboard-response","45","159614","0.0-9.0-0.18","huh45o","Mon Feb 08 2021 09:46:45 GMT+0100 (Centraleuropæisk normaltid)","2021","2","8","9","46","45","mi99","21","female","right","50","34","43","3","2","","","","","fixation","","","",""
"976.270000000135","img/image_stim_h.png","72","image-keyboard-response","46","160592","0.0-9.0-1.18","huh45o","Mon Feb 08 2021 09:46:45 GMT+0100 (Centraleuropæisk normaltid)","2021","2","8","9","46","45","mi99","21","female","right","50","34","43","3","2","","","","","test","happy","happy","h","true"
"null","<div style=""font-size:60px;"">+</div>","null","html-keyboard-response","47","161851","0.0-9.0-0.19","huh45o","Mon Feb 08 2021 09:46:45 GMT+0100 (Centraleuropæisk normaltid)","2021","2","8","9","46","45","mi99","21","female","right","50","34","43","3","2","","","","","fixation","","","",""
"1134.1299999999173","img/image_stim_f_stroop.png","70","image-keyboard-response","48","162986","0.0-9.0-1.19","huh45o","Mon Feb 08 2021 09:46:45 GMT+0100 (Centraleuropæisk normaltid)","2021","2","8","9","46","45","mi99","21","female","right","50","34","43","3","2","","","","","test","fear","happy","f","true"
"null","<div style=""font-size:60px;"">+</div>","null","html-keyboard-response","49","164245","0.0-9.0-0.20","huh45o","Mon Feb 08 2021 09:46:45 GMT+0100 (Centraleuropæisk normaltid)","2021","2","8","9","46","45","mi99","21","female","right","50","34","43","3","2","","","","","fixation","","","",""
"535.4449999999779","img/image_stim_h.png","72","image-keyboard-response","50","164782","0.0-9.0-1.20","huh45o","Mon Feb 08 2021 09:46:45 GMT+0100 (Centraleuropæisk normaltid)","2021","2","8","9","46","45","mi99","21","female","right","50","34","43","3","2","","","","","test","happy","happy","h","true"
"null","<div style=""font-size:60px;"">+</div>","null","html-keyboard-response","51","166538","0.0-9.0-0.21","huh45o","Mon Feb 08 2021 09:46:45 GMT+0100 (Centraleuropæisk normaltid)","2021","2","8","9","46","45","mi99","21","female","right","50","34","43","3","2","","","","","fixation","","","",""
"1002.5399999999499","img/image_stim_f_stroop.png","70","image-keyboard-response","52","167542","0.0-9.0-1.21","huh45o","Mon Feb 08 2021 09:46:45 GMT+0100 (Centraleuropæisk normaltid)","2021","2","8","9","46","45","mi99","21","female","right","50","34","43","3","2","","","","","test","fear","happy","f","true"
"null","<div style=""font-size:60px;"">+</div>","null","html-keyboard-response","53","168801","0.0-9.0-0.22","huh45o","Mon Feb 08 2021 09:46:45 GMT+0100 (Centraleuropæisk normaltid)","2021","2","8","9","46","45","mi99","21","female","right","50","34","43","3","2","","","","","fixation","","","",""
"694.260000000213","img/image_stim_h_stroop.png","72","image-keyboard-response","54","169497","0.0-9.0-1.22","huh45o","Mon Feb 08 2021 09:46:45 GMT+0100 (Centraleuropæisk normaltid)","2021","2","8","9","46","45","mi99","21","female","right","50","34","43","3","2","","","","","test","happy","fear","h","true"
"null","<div style=""font-size:60px;"">+</div>","null","html-keyboard-response","55","170002","0.0-9.0-0.23","huh45o","Mon Feb 08 2021 09:46:45 GMT+0100 (Centraleuropæisk normaltid)","2021","2","8","9","46","45","mi99","21","female","right","50","34","43","3","2","","","","","fixation","","","",""
"758.0750000001863","img/image_stim_f.png","70","image-keyboard-response","56","170762","0.0-9.0-1.23","huh45o","Mon Feb 08 2021 09:46:45 GMT+0100 (Centraleuropæisk normaltid)","2021","2","8","9","46","45","mi99","21","female","right","50","34","43","3","2","","","","","test","fear","fear","f","true"
"null","<div style=""font-size:60px;"">+</div>","null","html-keyboard-response","57","172771","0.0-9.0-0.24","huh45o","Mon Feb 08 2021 09:46:45 GMT+0100 (Centraleuropæisk normaltid)","2021","2","8","9","46","45","mi99","21","female","right","50","34","43","3","2","","","","","fixation","","","",""
"1064.4250000000466","img/image_stim_f_stroop.png","70","image-keyboard-response","58","173837","0.0-9.0-1.24","huh45o","Mon Feb 08 2021 09:46:45 GMT+0100 (Centraleuropæisk normaltid)","2021","2","8","9","46","45","mi99","21","female","right","50","34","43","3","2","","","","","test","fear","happy","f","true"
"null","<div style=""font-size:60px;"">+</div>","null","html-keyboard-response","59","174597","0.0-9.0-0.25","huh45o","Mon Feb 08 2021 09:46:45 GMT+0100 (Centraleuropæisk normaltid)","2021","2","8","9","46","45","mi99","21","female","right","50","34","43","3","2","","","","","fixation","","","",""
"440.41500000003725","img/image_stim_f.png","70","image-keyboard-response","60","175039","0.0-9.0-1.25","huh45o","Mon Feb 08 2021 09:46:45 GMT+0100 (Centraleuropæisk normaltid)","2021","2","8","9","46","45","mi99","21","female","right","50","34","43","3","2","","","","","test","fear","fear","f","true"
"null","<div style=""font-size:60px;"">+</div>","null","html-keyboard-response","61","176044","0.0-9.0-0.26","huh45o","Mon Feb 08 2021 09:46:45 GMT+0100 (Centraleuropæisk normaltid)","2021","2","8","9","46","45","mi99","21","female","right","50","34","43","3","2","","","","","fixation","","","",""
"540.3650000003108","img/image_stim_h_stroop.png","72","image-keyboard-response","62","176586","0.0-9.0-1.26","huh45o","Mon Feb 08 2021 09:46:45 GMT+0100 (Centraleuropæisk normaltid)","2021","2","8","9","46","45","mi99","21","female","right","50","34","43","3","2","","","","","test","happy","fear","h","true"
"null","<div style=""font-size:60px;"">+</div>","null","html-keyboard-response","63","177091","0.0-9.0-0.27","huh45o","Mon Feb 08 2021 09:46:45 GMT+0100 (Centraleuropæisk normaltid)","2021","2","8","9","46","45","mi99","21","female","right","50","34","43","3","2","","","","","fixation","","","",""
"661.4249999997846","img/image_stim_h.png","72","image-keyboard-response","64","177754","0.0-9.0-1.27","huh45o","Mon Feb 08 2021 09:46:45 GMT+0100 (Centraleuropæisk normaltid)","2021","2","8","9","46","45","mi99","21","female","right","50","34","43","3","2","","","","","test","happy","happy","h","true"
"null","<div style=""font-size:60px;"">+</div>","null","html-keyboard-response","65","178011","0.0-9.0-0.28","huh45o","Mon Feb 08 2021 09:46:45 GMT+0100 (Centraleuropæisk normaltid)","2021","2","8","9","46","45","mi99","21","female","right","50","34","43","3","2","","","","","fixation","","","",""
"752.4150000003574","img/image_stim_f.png","70","image-keyboard-response","66","178765","0.0-9.0-1.28","huh45o","Mon Feb 08 2021 09:46:45 GMT+0100 (Centraleuropæisk normaltid)","2021","2","8","9","46","45","mi99","21","female","right","50","34","43","3","2","","","","","test","fear","fear","f","true"
"null","<div style=""font-size:60px;"">+</div>","null","html-keyboard-response","67","179022","0.0-9.0-0.29","huh45o","Mon Feb 08 2021 09:46:45 GMT+0100 (Centraleuropæisk normaltid)","2021","2","8","9","46","45","mi99","21","female","right","50","34","43","3","2","","","","","fixation","","","",""
"666.479999999865","img/image_stim_h.png","72","image-keyboard-response","68","179690","0.0-9.0-1.29","huh45o","Mon Feb 08 2021 09:46:45 GMT+0100 (Centraleuropæisk normaltid)","2021","2","8","9","46","45","mi99","21","female","right","50","34","43","3","2","","","","","test","happy","happy","h","true"
"null","<div style=""font-size:60px;"">+</div>","null","html-keyboard-response","69","179950","0.0-9.0-0.30","huh45o","Mon Feb 08 2021 09:46:45 GMT+0100 (Centraleuropæisk normaltid)","2021","2","8","9","46","45","mi99","21","female","right","50","34","43","3","2","","","","","fixation","","","",""
"562.8849999998056","img/image_stim_f_stroop.png","70","image-keyboard-response","70","180515","0.0-9.0-1.30","huh45o","Mon Feb 08 2021 09:46:45 GMT+0100 (Centraleuropæisk normaltid)","2021","2","8","9","46","45","mi99","21","female","right","50","34","43","3","2","","","","","test","fear","happy","f","true"
"null","<div style=""font-size:60px;"">+</div>","null","html-keyboard-response","71","181523","0.0-9.0-0.31","huh45o","Mon Feb 08 2021 09:46:45 GMT+0100 (Centraleuropæisk normaltid)","2021","2","8","9","46","45","mi99","21","female","right","50","34","43","3","2","","","","","fixation","","","",""
"599.594999999681","img/image_stim_h_stroop.png","70","image-keyboard-response","72","182125","0.0-9.0-1.31","huh45o","Mon Feb 08 2021 09:46:45 GMT+0100 (Centraleuropæisk normaltid)","2021","2","8","9","46","45","mi99","21","female","right","50","34","43","3","2","","","","","test","happy","fear","h","false"
"null","<div style=""font-size:60px;"">+</div>","null","html-keyboard-response","73","184135","0.0-9.0-0.32","huh45o","Mon Feb 08 2021 09:46:45 GMT+0100 (Centraleuropæisk normaltid)","2021","2","8","9","46","45","mi99","21","female","right","50","34","43","3","2","","","","","fixation","","","",""
"1165.3399999999965","img/image_stim_h.png","72","image-keyboard-response","74","185301","0.0-9.0-1.32","huh45o","Mon Feb 08 2021 09:46:45 GMT+0100 (Centraleuropæisk normaltid)","2021","2","8","9","46","45","mi99","21","female","right","50","34","43","3","2","","","","","test","happy","happy","h","true"
"null","<div style=""font-size:60px;"">+</div>","null","html-keyboard-response","75","187312","0.0-9.0-0.33","huh45o","Mon Feb 08 2021 09:46:45 GMT+0100 (Centraleuropæisk normaltid)","2021","2","8","9","46","45","mi99","21","female","right","50","34","43","3","2","","","","","fixation","","","",""
"989.234999999986","img/image_stim_h_stroop.png","72","image-keyboard-response","76","188302","0.0-9.0-1.33","huh45o","Mon Feb 08 2021 09:46:45 GMT+0100 (Centraleuropæisk normaltid)","2021","2","8","9","46","45","mi99","21","female","right","50","34","43","3","2","","","","","test","happy","fear","h","true"
"null","<div style=""font-size:60px;"">+</div>","null","html-keyboard-response","77","189814","0.0-9.0-0.34","huh45o","Mon Feb 08 2021 09:46:45 GMT+0100 (Centraleuropæisk normaltid)","2021","2","8","9","46","45","mi99","21","female","right","50","34","43","3","2","","","","","fixation","","","",""
"522.0850000000501","img/image_stim_f.png","70","image-keyboard-response","78","190338","0.0-9.0-1.34","huh45o","Mon Feb 08 2021 09:46:45 GMT+0100 (Centraleuropæisk normaltid)","2021","2","8","9","46","45","mi99","21","female","right","50","34","43","3","2","","","","","test","fear","fear","f","true"
"null","<div style=""font-size:60px;"">+</div>","null","html-keyboard-response","79","192097","0.0-9.0-0.35","huh45o","Mon Feb 08 2021 09:46:45 GMT+0100 (Centraleuropæisk normaltid)","2021","2","8","9","46","45","mi99","21","female","right","50","34","43","3","2","","","","","fixation","","","",""
"788.3700000001991","img/image_stim_f_stroop.png","70","image-keyboard-response","80","192887","0.0-9.0-1.35","huh45o","Mon Feb 08 2021 09:46:45 GMT+0100 (Centraleuropæisk normaltid)","2021","2","8","9","46","45","mi99","21","female","right","50","34","43","3","2","","","","","test","fear","happy","f","true"
