"rt","stimulus","key_press","trial_type","trial_index","time_elapsed","internal_node_id","exp_id","Time","year","month","date","hour","minute","seconds","id","age","Gender","Handedness","mood","fresh","hunger","H_since_Sleep","H_since_Eat","responses","question_order","slider_start","response","test_part","face","word","correct_response","correct"
"1918","<p>Welcome to this experiment on daily rhythms and cognition.</p><p>First you will be asked some questions about yourself.</p><p>Then a short experiment will measure your response time.</p><p>Take the test at different times of the day/night.</p><p>The test is anonymous, but comparing your data across time is important.</p><p>Therefore, please make up and remember a personal ID (two letters+ two numbers).</p><p>Use this ID whenever taking the test.</p><p><strong>Press any key to begin.</strong></p>","32","html-keyboard-response","0","1923","0.0-0.0","0qpf78","Fri Feb 19 2021 16:25:46 GMT+0900 (KST)","2021","2","19","16","25","46","cs12","21, 20","female","right","43","50","58","3","2","","","","","","","","",""
"3393.000000000001","","","survey-text","1","5363","0.0-1.0","0qpf78","Fri Feb 19 2021 16:25:46 GMT+0900 (KST)","2021","2","19","16","25","46","cs12","21, 20","female","right","43","50","58","3","2","{""Q0"":""cs12""}","","","","","","","",""
"4331","","","survey-text","2","9699","0.0-2.0","0qpf78","Fri Feb 19 2021 16:25:46 GMT+0900 (KST)","2021","2","19","16","25","46","cs12","21, 20","female","right","43","50","58","3","2","{""Q0"":""21, 20""}","","","","","","","",""
"3595","","","survey-multi-select","3","13299","0.0-3.0","0qpf78","Fri Feb 19 2021 16:25:46 GMT+0900 (KST)","2021","2","19","16","25","46","cs12","21, 20","female","right","43","50","58","3","2","{""Gender"":[""female""],""Hand"":[""right""]}","[0,1]","","","","","","",""
"4046.999999999998","<p>How Sad/Angry or Happy are you right now?</p>","","html-slider-response","4","17350","0.0-4.0","0qpf78","Fri Feb 19 2021 16:25:46 GMT+0900 (KST)","2021","2","19","16","25","46","cs12","21, 20","female","right","43","50","58","3","2","","","50","43","","","","",""
"7302","<p>How Tired/Sleepy/Distracted or Fresh/Awake/Alert are you right now?</p>","","html-slider-response","5","24653","0.0-5.0","0qpf78","Fri Feb 19 2021 16:25:46 GMT+0900 (KST)","2021","2","19","16","25","46","cs12","21, 20","female","right","43","50","58","3","2","","","50","50","","","","",""
"12757","<p>How Hungry or Satiated are you right now?</p>","","html-slider-response","6","37410","0.0-6.0","0qpf78","Fri Feb 19 2021 16:25:46 GMT+0900 (KST)","2021","2","19","16","25","46","cs12","21, 20","female","right","43","50","58","3","2","","","50","58","","","","",""
"13346","","","survey-multi-select","7","50768","0.0-7.0","0qpf78","Fri Feb 19 2021 16:25:46 GMT+0900 (KST)","2021","2","19","16","25","46","cs12","21, 20","female","right","43","50","58","3","2","{""Sleep"":[""3""],""Eat"":[""2""]}","[0,1]","","","","","","",""
"2933","<p>In this experiment, a face and a word will appear in the center of the screen.</p><p>If the face is <strong>happy</strong>, press the letter <strong>H</strong> with <strong>right</strong> index finger.</p><p>If the face is <strong>fearful</strong>, press the letter <strong>F</strong> with <strong>left</strong> index finger.</p><p><strong>Ignore the written words</strong>. Respond as fast as possible while being correct. </p><div style='width: 900px;'><div style='float: left;'><img src='img/stimuli_stroop_happy.png'></img><p class='small'><strong>Press the H key for happy faces</strong></p></div><div class='float: right;'><img src='img/stimuli_stroop_fear.png'></img><p class='small'><strong>Press the F key for faces with fear</strong></p></div></div><p>If the screen turns blank, press <strong>SPACE</strong></p><p><strong>Press any key to begin.</strong></p>","32","html-keyboard-response","8","53702","0.0-8.0","0qpf78","Fri Feb 19 2021 16:25:46 GMT+0900 (KST)","2021","2","19","16","25","46","cs12","21, 20","female","right","43","50","58","3","2","","","","","","","","",""
"null","<div style=""font-size:60px;"">+</div>","null","html-keyboard-response","9","56956","0.0-9.0-0.0","0qpf78","Fri Feb 19 2021 16:25:46 GMT+0900 (KST)","2021","2","19","16","25","46","cs12","21, 20","female","right","43","50","58","3","2","","","","","fixation","","","",""
"500","img/image_stim_f.png","70","image-keyboard-response","10","57467","0.0-9.0-1.0","0qpf78","Fri Feb 19 2021 16:25:46 GMT+0900 (KST)","2021","2","19","16","25","46","cs12","21, 20","female","right","43","50","58","3","2","","","","","test","fear","fear","f","true"
"null","<div style=""font-size:60px;"">+</div>","null","html-keyboard-response","11","59225","0.0-9.0-0.1","0qpf78","Fri Feb 19 2021 16:25:46 GMT+0900 (KST)","2021","2","19","16","25","46","cs12","21, 20","female","right","43","50","58","3","2","","","","","fixation","","","",""
"559.9999999999927","img/image_stim_h.png","72","image-keyboard-response","12","59788","0.0-9.0-1.1","0qpf78","Fri Feb 19 2021 16:25:46 GMT+0900 (KST)","2021","2","19","16","25","46","cs12","21, 20","female","right","43","50","58","3","2","","","","","test","happy","happy","h","true"
"null","<div style=""font-size:60px;"">+</div>","null","html-keyboard-response","13","61292","0.0-9.0-0.2","0qpf78","Fri Feb 19 2021 16:25:46 GMT+0900 (KST)","2021","2","19","16","25","46","cs12","21, 20","female","right","43","50","58","3","2","","","","","fixation","","","",""
"808","img/image_stim_f_stroop.png","70","image-keyboard-response","14","62102","0.0-9.0-1.2","0qpf78","Fri Feb 19 2021 16:25:46 GMT+0900 (KST)","2021","2","19","16","25","46","cs12","21, 20","female","right","43","50","58","3","2","","","","","test","fear","happy","f","true"
"null","<div style=""font-size:60px;"">+</div>","null","html-keyboard-response","15","62855","0.0-9.0-0.3","0qpf78","Fri Feb 19 2021 16:25:46 GMT+0900 (KST)","2021","2","19","16","25","46","cs12","21, 20","female","right","43","50","58","3","2","","","","","fixation","","","",""
"617.0000000000073","img/image_stim_h_stroop.png","72","image-keyboard-response","16","63474","0.0-9.0-1.3","0qpf78","Fri Feb 19 2021 16:25:46 GMT+0900 (KST)","2021","2","19","16","25","46","cs12","21, 20","female","right","43","50","58","3","2","","","","","test","happy","fear","h","true"
"null","<div style=""font-size:60px;"">+</div>","null","html-keyboard-response","17","64977","0.0-9.0-0.4","0qpf78","Fri Feb 19 2021 16:25:46 GMT+0900 (KST)","2021","2","19","16","25","46","cs12","21, 20","female","right","43","50","58","3","2","","","","","fixation","","","",""
"471","img/image_stim_h.png","72","image-keyboard-response","18","65450","0.0-9.0-1.4","0qpf78","Fri Feb 19 2021 16:25:46 GMT+0900 (KST)","2021","2","19","16","25","46","cs12","21, 20","female","right","43","50","58","3","2","","","","","test","happy","happy","h","true"
"null","<div style=""font-size:60px;"">+</div>","null","html-keyboard-response","19","65952","0.0-9.0-0.5","0qpf78","Fri Feb 19 2021 16:25:46 GMT+0900 (KST)","2021","2","19","16","25","46","cs12","21, 20","female","right","43","50","58","3","2","","","","","fixation","","","",""
"381","img/image_stim_f_stroop.png","72","image-keyboard-response","20","66335","0.0-9.0-1.5","0qpf78","Fri Feb 19 2021 16:25:46 GMT+0900 (KST)","2021","2","19","16","25","46","cs12","21, 20","female","right","43","50","58","3","2","","","","","test","fear","happy","f","false"
"null","<div style=""font-size:60px;"">+</div>","null","html-keyboard-response","21","67839","0.0-9.0-0.6","0qpf78","Fri Feb 19 2021 16:25:46 GMT+0900 (KST)","2021","2","19","16","25","46","cs12","21, 20","female","right","43","50","58","3","2","","","","","fixation","","","",""
"448","img/image_stim_h_stroop.png","72","image-keyboard-response","22","68288","0.0-9.0-1.6","0qpf78","Fri Feb 19 2021 16:25:46 GMT+0900 (KST)","2021","2","19","16","25","46","cs12","21, 20","female","right","43","50","58","3","2","","","","","test","happy","fear","h","true"
"null","<div style=""font-size:60px;"">+</div>","null","html-keyboard-response","23","69541","0.0-9.0-0.7","0qpf78","Fri Feb 19 2021 16:25:46 GMT+0900 (KST)","2021","2","19","16","25","46","cs12","21, 20","female","right","43","50","58","3","2","","","","","fixation","","","",""
"538.0000000000146","img/image_stim_f.png","70","image-keyboard-response","24","70080","0.0-9.0-1.7","0qpf78","Fri Feb 19 2021 16:25:46 GMT+0900 (KST)","2021","2","19","16","25","46","cs12","21, 20","female","right","43","50","58","3","2","","","","","test","fear","fear","f","true"
"null","<div style=""font-size:60px;"">+</div>","null","html-keyboard-response","25","70583","0.0-9.0-0.8","0qpf78","Fri Feb 19 2021 16:25:46 GMT+0900 (KST)","2021","2","19","16","25","46","cs12","21, 20","female","right","43","50","58","3","2","","","","","fixation","","","",""
"491","img/image_stim_f.png","70","image-keyboard-response","26","71075","0.0-9.0-1.8","0qpf78","Fri Feb 19 2021 16:25:46 GMT+0900 (KST)","2021","2","19","16","25","46","cs12","21, 20","female","right","43","50","58","3","2","","","","","test","fear","fear","f","true"
"null","<div style=""font-size:60px;"">+</div>","null","html-keyboard-response","27","71828","0.0-9.0-0.9","0qpf78","Fri Feb 19 2021 16:25:46 GMT+0900 (KST)","2021","2","19","16","25","46","cs12","21, 20","female","right","43","50","58","3","2","","","","","fixation","","","",""
"508.99999999998545","img/image_stim_h_stroop.png","72","image-keyboard-response","28","72339","0.0-9.0-1.9","0qpf78","Fri Feb 19 2021 16:25:46 GMT+0900 (KST)","2021","2","19","16","25","46","cs12","21, 20","female","right","43","50","58","3","2","","","","","test","happy","fear","h","true"
"null","<div style=""font-size:60px;"">+</div>","null","html-keyboard-response","29","73091","0.0-9.0-0.10","0qpf78","Fri Feb 19 2021 16:25:46 GMT+0900 (KST)","2021","2","19","16","25","46","cs12","21, 20","female","right","43","50","58","3","2","","","","","fixation","","","",""
"549","img/image_stim_f_stroop.png","70","image-keyboard-response","30","73641","0.0-9.0-1.10","0qpf78","Fri Feb 19 2021 16:25:46 GMT+0900 (KST)","2021","2","19","16","25","46","cs12","21, 20","female","right","43","50","58","3","2","","","","","test","fear","happy","f","true"
"null","<div style=""font-size:60px;"">+</div>","null","html-keyboard-response","31","75644","0.0-9.0-0.11","0qpf78","Fri Feb 19 2021 16:25:46 GMT+0900 (KST)","2021","2","19","16","25","46","cs12","21, 20","female","right","43","50","58","3","2","","","","","fixation","","","",""
"531","img/image_stim_h.png","72","image-keyboard-response","32","76176","0.0-9.0-1.11","0qpf78","Fri Feb 19 2021 16:25:46 GMT+0900 (KST)","2021","2","19","16","25","46","cs12","21, 20","female","right","43","50","58","3","2","","","","","test","happy","happy","h","true"
"null","<div style=""font-size:60px;"">+</div>","null","html-keyboard-response","33","77679","0.0-9.0-0.12","0qpf78","Fri Feb 19 2021 16:25:46 GMT+0900 (KST)","2021","2","19","16","25","46","cs12","21, 20","female","right","43","50","58","3","2","","","","","fixation","","","",""
"496.00000000001455","img/image_stim_h_stroop.png","72","image-keyboard-response","34","78179","0.0-9.0-1.12","0qpf78","Fri Feb 19 2021 16:25:46 GMT+0900 (KST)","2021","2","19","16","25","46","cs12","21, 20","female","right","43","50","58","3","2","","","","","test","happy","fear","h","true"
"null","<div style=""font-size:60px;"">+</div>","null","html-keyboard-response","35","79432","0.0-9.0-0.13","0qpf78","Fri Feb 19 2021 16:25:46 GMT+0900 (KST)","2021","2","19","16","25","46","cs12","21, 20","female","right","43","50","58","3","2","","","","","fixation","","","",""
"567.9999999999854","img/image_stim_f_stroop.png","70","image-keyboard-response","36","80002","0.0-9.0-1.13","0qpf78","Fri Feb 19 2021 16:25:46 GMT+0900 (KST)","2021","2","19","16","25","46","cs12","21, 20","female","right","43","50","58","3","2","","","","","test","fear","happy","f","true"
"null","<div style=""font-size:60px;"">+</div>","null","html-keyboard-response","37","81005","0.0-9.0-0.14","0qpf78","Fri Feb 19 2021 16:25:46 GMT+0900 (KST)","2021","2","19","16","25","46","cs12","21, 20","female","right","43","50","58","3","2","","","","","fixation","","","",""
"461","img/image_stim_f.png","70","image-keyboard-response","38","81470","0.0-9.0-1.14","0qpf78","Fri Feb 19 2021 16:25:46 GMT+0900 (KST)","2021","2","19","16","25","46","cs12","21, 20","female","right","43","50","58","3","2","","","","","test","fear","fear","f","true"
"null","<div style=""font-size:60px;"">+</div>","null","html-keyboard-response","39","82223","0.0-9.0-0.15","0qpf78","Fri Feb 19 2021 16:25:46 GMT+0900 (KST)","2021","2","19","16","25","46","cs12","21, 20","female","right","43","50","58","3","2","","","","","fixation","","","",""
"508","img/image_stim_h.png","72","image-keyboard-response","40","82733","0.0-9.0-1.15","0qpf78","Fri Feb 19 2021 16:25:46 GMT+0900 (KST)","2021","2","19","16","25","46","cs12","21, 20","female","right","43","50","58","3","2","","","","","test","happy","happy","h","true"
"null","<div style=""font-size:60px;"">+</div>","null","html-keyboard-response","41","83486","0.0-9.0-0.16","0qpf78","Fri Feb 19 2021 16:25:46 GMT+0900 (KST)","2021","2","19","16","25","46","cs12","21, 20","female","right","43","50","58","3","2","","","","","fixation","","","",""
"524","img/image_stim_f.png","70","image-keyboard-response","42","84012","0.0-9.0-1.16","0qpf78","Fri Feb 19 2021 16:25:46 GMT+0900 (KST)","2021","2","19","16","25","46","cs12","21, 20","female","right","43","50","58","3","2","","","","","test","fear","fear","f","true"
"null","<div style=""font-size:60px;"">+</div>","null","html-keyboard-response","43","84265","0.0-9.0-0.17","0qpf78","Fri Feb 19 2021 16:25:46 GMT+0900 (KST)","2021","2","19","16","25","46","cs12","21, 20","female","right","43","50","58","3","2","","","","","fixation","","","",""
"627","img/image_stim_h_stroop.png","72","image-keyboard-response","44","84893","0.0-9.0-1.17","0qpf78","Fri Feb 19 2021 16:25:46 GMT+0900 (KST)","2021","2","19","16","25","46","cs12","21, 20","female","right","43","50","58","3","2","","","","","test","happy","fear","h","true"
"null","<div style=""font-size:60px;"">+</div>","null","html-keyboard-response","45","86396","0.0-9.0-0.18","0qpf78","Fri Feb 19 2021 16:25:46 GMT+0900 (KST)","2021","2","19","16","25","46","cs12","21, 20","female","right","43","50","58","3","2","","","","","fixation","","","",""
"596","img/image_stim_h.png","72","image-keyboard-response","46","86993","0.0-9.0-1.18","0qpf78","Fri Feb 19 2021 16:25:46 GMT+0900 (KST)","2021","2","19","16","25","46","cs12","21, 20","female","right","43","50","58","3","2","","","","","test","happy","happy","h","true"
"null","<div style=""font-size:60px;"">+</div>","null","html-keyboard-response","47","88246","0.0-9.0-0.19","0qpf78","Fri Feb 19 2021 16:25:46 GMT+0900 (KST)","2021","2","19","16","25","46","cs12","21, 20","female","right","43","50","58","3","2","","","","","fixation","","","",""
"682.0000000000146","img/image_stim_f_stroop.png","70","image-keyboard-response","48","88932","0.0-9.0-1.19","0qpf78","Fri Feb 19 2021 16:25:46 GMT+0900 (KST)","2021","2","19","16","25","46","cs12","21, 20","female","right","43","50","58","3","2","","","","","test","fear","happy","f","true"
"null","<div style=""font-size:60px;"">+</div>","null","html-keyboard-response","49","89185","0.0-9.0-0.20","0qpf78","Fri Feb 19 2021 16:25:46 GMT+0900 (KST)","2021","2","19","16","25","46","cs12","21, 20","female","right","43","50","58","3","2","","","","","fixation","","","",""
"460.99999999998545","img/image_stim_f_stroop.png","70","image-keyboard-response","50","89648","0.0-9.0-1.20","0qpf78","Fri Feb 19 2021 16:25:46 GMT+0900 (KST)","2021","2","19","16","25","46","cs12","21, 20","female","right","43","50","58","3","2","","","","","test","fear","happy","f","true"
"null","<div style=""font-size:60px;"">+</div>","null","html-keyboard-response","51","91651","0.0-9.0-0.21","0qpf78","Fri Feb 19 2021 16:25:46 GMT+0900 (KST)","2021","2","19","16","25","46","cs12","21, 20","female","right","43","50","58","3","2","","","","","fixation","","","",""
"483","img/image_stim_f.png","70","image-keyboard-response","52","92135","0.0-9.0-1.21","0qpf78","Fri Feb 19 2021 16:25:46 GMT+0900 (KST)","2021","2","19","16","25","46","cs12","21, 20","female","right","43","50","58","3","2","","","","","test","fear","fear","f","true"
"null","<div style=""font-size:60px;"">+</div>","null","html-keyboard-response","53","92638","0.0-9.0-0.22","0qpf78","Fri Feb 19 2021 16:25:46 GMT+0900 (KST)","2021","2","19","16","25","46","cs12","21, 20","female","right","43","50","58","3","2","","","","","fixation","","","",""
"680","img/image_stim_h_stroop.png","72","image-keyboard-response","54","93320","0.0-9.0-1.22","0qpf78","Fri Feb 19 2021 16:25:46 GMT+0900 (KST)","2021","2","19","16","25","46","cs12","21, 20","female","right","43","50","58","3","2","","","","","test","happy","fear","h","true"
"null","<div style=""font-size:60px;"">+</div>","null","html-keyboard-response","55","95073","0.0-9.0-0.23","0qpf78","Fri Feb 19 2021 16:25:46 GMT+0900 (KST)","2021","2","19","16","25","46","cs12","21, 20","female","right","43","50","58","3","2","","","","","fixation","","","",""
"520.0000000000146","img/image_stim_h.png","72","image-keyboard-response","56","95595","0.0-9.0-1.23","0qpf78","Fri Feb 19 2021 16:25:46 GMT+0900 (KST)","2021","2","19","16","25","46","cs12","21, 20","female","right","43","50","58","3","2","","","","","test","happy","happy","h","true"
"null","<div style=""font-size:60px;"">+</div>","null","html-keyboard-response","57","97098","0.0-9.0-0.24","0qpf78","Fri Feb 19 2021 16:25:46 GMT+0900 (KST)","2021","2","19","16","25","46","cs12","21, 20","female","right","43","50","58","3","2","","","","","fixation","","","",""
"523","img/image_stim_h_stroop.png","72","image-keyboard-response","58","97623","0.0-9.0-1.24","0qpf78","Fri Feb 19 2021 16:25:46 GMT+0900 (KST)","2021","2","19","16","25","46","cs12","21, 20","female","right","43","50","58","3","2","","","","","test","happy","fear","h","true"
"null","<div style=""font-size:60px;"">+</div>","null","html-keyboard-response","59","99376","0.0-9.0-0.25","0qpf78","Fri Feb 19 2021 16:25:46 GMT+0900 (KST)","2021","2","19","16","25","46","cs12","21, 20","female","right","43","50","58","3","2","","","","","fixation","","","",""
"538","img/image_stim_f_stroop.png","70","image-keyboard-response","60","99918","0.0-9.0-1.25","0qpf78","Fri Feb 19 2021 16:25:46 GMT+0900 (KST)","2021","2","19","16","25","46","cs12","21, 20","female","right","43","50","58","3","2","","","","","test","fear","happy","f","true"
"null","<div style=""font-size:60px;"">+</div>","null","html-keyboard-response","61","101921","0.0-9.0-0.26","0qpf78","Fri Feb 19 2021 16:25:46 GMT+0900 (KST)","2021","2","19","16","25","46","cs12","21, 20","female","right","43","50","58","3","2","","","","","fixation","","","",""
"466","img/image_stim_f.png","70","image-keyboard-response","62","102389","0.0-9.0-1.26","0qpf78","Fri Feb 19 2021 16:25:46 GMT+0900 (KST)","2021","2","19","16","25","46","cs12","21, 20","female","right","43","50","58","3","2","","","","","test","fear","fear","f","true"
"null","<div style=""font-size:60px;"">+</div>","null","html-keyboard-response","63","102892","0.0-9.0-0.27","0qpf78","Fri Feb 19 2021 16:25:46 GMT+0900 (KST)","2021","2","19","16","25","46","cs12","21, 20","female","right","43","50","58","3","2","","","","","fixation","","","",""
"558.0000000000146","img/image_stim_h.png","72","image-keyboard-response","64","103452","0.0-9.0-1.27","0qpf78","Fri Feb 19 2021 16:25:46 GMT+0900 (KST)","2021","2","19","16","25","46","cs12","21, 20","female","right","43","50","58","3","2","","","","","test","happy","happy","h","true"
"null","<div style=""font-size:60px;"">+</div>","null","html-keyboard-response","65","104955","0.0-9.0-0.28","0qpf78","Fri Feb 19 2021 16:25:46 GMT+0900 (KST)","2021","2","19","16","25","46","cs12","21, 20","female","right","43","50","58","3","2","","","","","fixation","","","",""
"376.00000000001455","img/image_stim_h.png","72","image-keyboard-response","66","105333","0.0-9.0-1.28","0qpf78","Fri Feb 19 2021 16:25:46 GMT+0900 (KST)","2021","2","19","16","25","46","cs12","21, 20","female","right","43","50","58","3","2","","","","","test","happy","happy","h","true"
"null","<div style=""font-size:60px;"">+</div>","null","html-keyboard-response","67","106836","0.0-9.0-0.29","0qpf78","Fri Feb 19 2021 16:25:46 GMT+0900 (KST)","2021","2","19","16","25","46","cs12","21, 20","female","right","43","50","58","3","2","","","","","fixation","","","",""
"550","img/image_stim_f_stroop.png","70","image-keyboard-response","68","107388","0.0-9.0-1.29","0qpf78","Fri Feb 19 2021 16:25:46 GMT+0900 (KST)","2021","2","19","16","25","46","cs12","21, 20","female","right","43","50","58","3","2","","","","","test","fear","happy","f","true"
"null","<div style=""font-size:60px;"">+</div>","null","html-keyboard-response","69","109142","0.0-9.0-0.30","0qpf78","Fri Feb 19 2021 16:25:46 GMT+0900 (KST)","2021","2","19","16","25","46","cs12","21, 20","female","right","43","50","58","3","2","","","","","fixation","","","",""
"440.00000000001455","img/image_stim_f.png","70","image-keyboard-response","70","109586","0.0-9.0-1.30","0qpf78","Fri Feb 19 2021 16:25:46 GMT+0900 (KST)","2021","2","19","16","25","46","cs12","21, 20","female","right","43","50","58","3","2","","","","","test","fear","fear","f","true"
"null","<div style=""font-size:60px;"">+</div>","null","html-keyboard-response","71","111089","0.0-9.0-0.31","0qpf78","Fri Feb 19 2021 16:25:46 GMT+0900 (KST)","2021","2","19","16","25","46","cs12","21, 20","female","right","43","50","58","3","2","","","","","fixation","","","",""
"490","img/image_stim_h_stroop.png","72","image-keyboard-response","72","111581","0.0-9.0-1.31","0qpf78","Fri Feb 19 2021 16:25:46 GMT+0900 (KST)","2021","2","19","16","25","46","cs12","21, 20","female","right","43","50","58","3","2","","","","","test","happy","fear","h","true"
"null","<div style=""font-size:60px;"">+</div>","null","html-keyboard-response","73","113085","0.0-9.0-0.32","0qpf78","Fri Feb 19 2021 16:25:46 GMT+0900 (KST)","2021","2","19","16","25","46","cs12","21, 20","female","right","43","50","58","3","2","","","","","fixation","","","",""
"489","img/image_stim_h.png","72","image-keyboard-response","74","113576","0.0-9.0-1.32","0qpf78","Fri Feb 19 2021 16:25:46 GMT+0900 (KST)","2021","2","19","16","25","46","cs12","21, 20","female","right","43","50","58","3","2","","","","","test","happy","happy","h","true"
"null","<div style=""font-size:60px;"">+</div>","null","html-keyboard-response","75","113830","0.0-9.0-0.33","0qpf78","Fri Feb 19 2021 16:25:46 GMT+0900 (KST)","2021","2","19","16","25","46","cs12","21, 20","female","right","43","50","58","3","2","","","","","fixation","","","",""
"590","img/image_stim_f.png","70","image-keyboard-response","76","114422","0.0-9.0-1.33","0qpf78","Fri Feb 19 2021 16:25:46 GMT+0900 (KST)","2021","2","19","16","25","46","cs12","21, 20","female","right","43","50","58","3","2","","","","","test","fear","fear","f","true"
"null","<div style=""font-size:60px;"">+</div>","null","html-keyboard-response","77","115176","0.0-9.0-0.34","0qpf78","Fri Feb 19 2021 16:25:46 GMT+0900 (KST)","2021","2","19","16","25","46","cs12","21, 20","female","right","43","50","58","3","2","","","","","fixation","","","",""
"481","img/image_stim_f_stroop.png","70","image-keyboard-response","78","115658","0.0-9.0-1.34","0qpf78","Fri Feb 19 2021 16:25:46 GMT+0900 (KST)","2021","2","19","16","25","46","cs12","21, 20","female","right","43","50","58","3","2","","","","","test","fear","happy","f","true"
"null","<div style=""font-size:60px;"">+</div>","null","html-keyboard-response","79","116661","0.0-9.0-0.35","0qpf78","Fri Feb 19 2021 16:25:46 GMT+0900 (KST)","2021","2","19","16","25","46","cs12","21, 20","female","right","43","50","58","3","2","","","","","fixation","","","",""
"529","img/image_stim_h_stroop.png","72","image-keyboard-response","80","117191","0.0-9.0-1.35","0qpf78","Fri Feb 19 2021 16:25:46 GMT+0900 (KST)","2021","2","19","16","25","46","cs12","21, 20","female","right","43","50","58","3","2","","","","","test","happy","fear","h","true"
