"rt","stimulus","key_press","trial_type","trial_index","time_elapsed","internal_node_id","exp_id","Time","year","month","date","hour","minute","seconds","id","age","Gender","Handedness","mood","fresh","hunger","H_since_Sleep","H_since_Eat","responses","question_order","slider_start","response","test_part","face","word","correct_response","correct"
"7434.624999994412","<p>Welcome to this experiment on daily rhythms and cognition.</p><p>First you will be asked some questions about yourself.</p><p>Then a short experiment will measure your response time.</p><p>Take the test at different times of the day/night.</p><p>The test is anonymous, but comparing your data across time is important.</p><p>Therefore, please make up and remember a personal ID (two letters+ two numbers).</p><p>Use this ID whenever taking the test.</p><p><strong>Press any key to begin.</strong></p>","13","html-keyboard-response","0","7437","0.0-0.0","3blr2o","Fri Feb 12 2021 09:49:27 GMT+0100 (Centraleuropæisk normaltid)","2021","2","12","9","49","27","uc11","21","male","right","61","64","98","1","1","","","","","","","","",""
"6593.395000003511","","","survey-text","1","14035","0.0-1.0","3blr2o","Fri Feb 12 2021 09:49:27 GMT+0100 (Centraleuropæisk normaltid)","2021","2","12","9","49","27","uc11","21","male","right","61","64","98","1","1","{""Q0"":""uc11""}","","","","","","","",""
"6875.444999997853","","","survey-text","2","20913","0.0-2.0","3blr2o","Fri Feb 12 2021 09:49:27 GMT+0100 (Centraleuropæisk normaltid)","2021","2","12","9","49","27","uc11","21","male","right","61","64","98","1","1","{""Q0"":""21""}","","","","","","","",""
"5594.919999988633","","","survey-multi-select","3","26511","0.0-3.0","3blr2o","Fri Feb 12 2021 09:49:27 GMT+0100 (Centraleuropæisk normaltid)","2021","2","12","9","49","27","uc11","21","male","right","61","64","98","1","1","{""Gender"":[""male""],""Hand"":[""right""]}","[0,1]","","","","","","",""
"20210.55499999784","<p>How Sad/Angry or Happy are you right now?</p>","","html-slider-response","4","46724","0.0-4.0","3blr2o","Fri Feb 12 2021 09:49:27 GMT+0100 (Centraleuropæisk normaltid)","2021","2","12","9","49","27","uc11","21","male","right","61","64","98","1","1","","","50","61","","","","",""
"53932.94500000775","<p>How Tired/Sleepy/Distracted or Fresh/Awake/Alert are you right now?</p>","","html-slider-response","5","100657","0.0-5.0","3blr2o","Fri Feb 12 2021 09:49:27 GMT+0100 (Centraleuropæisk normaltid)","2021","2","12","9","49","27","uc11","21","male","right","61","64","98","1","1","","","50","64","","","","",""
"13109.345000004396","<p>How Hungry or Satiated are you right now?</p>","","html-slider-response","6","113767","0.0-6.0","3blr2o","Fri Feb 12 2021 09:49:27 GMT+0100 (Centraleuropæisk normaltid)","2021","2","12","9","49","27","uc11","21","male","right","61","64","98","1","1","","","50","98","","","","",""
"27279.91500000644","","","survey-multi-select","7","141060","0.0-7.0","3blr2o","Fri Feb 12 2021 09:49:27 GMT+0100 (Centraleuropæisk normaltid)","2021","2","12","9","49","27","uc11","21","male","right","61","64","98","1","1","{""Sleep"":[""1""],""Eat"":[""1""]}","[0,1]","","","","","","",""
"3161.1449999909382","<p>In this experiment, a face and a word will appear in the center of the screen.</p><p>If the face is <strong>happy</strong>, press the letter <strong>H</strong> with <strong>right</strong> index finger.</p><p>If the face is <strong>fearful</strong>, press the letter <strong>F</strong> with <strong>left</strong> index finger.</p><p><strong>Ignore the written words</strong>. Respond as fast as possible while being correct. </p><div style='width: 900px;'><div style='float: left;'><img src='img/stimuli_stroop_happy.png'></img><p class='small'><strong>Press the H key for happy faces</strong></p></div><div class='float: right;'><img src='img/stimuli_stroop_fear.png'></img><p class='small'><strong>Press the F key for faces with fear</strong></p></div></div><p>If the screen turns blank, press <strong>SPACE</strong></p><p><strong>Press any key to begin.</strong></p>","32","html-keyboard-response","8","144223","0.0-8.0","3blr2o","Fri Feb 12 2021 09:49:27 GMT+0100 (Centraleuropæisk normaltid)","2021","2","12","9","49","27","uc11","21","male","right","61","64","98","1","1","","","","","","","","",""
"null","<div style=""font-size:60px;"">+</div>","null","html-keyboard-response","9","146977","0.0-9.0-0.0","3blr2o","Fri Feb 12 2021 09:49:27 GMT+0100 (Centraleuropæisk normaltid)","2021","2","12","9","49","27","uc11","21","male","right","61","64","98","1","1","","","","","fixation","","","",""
"612.2649999888381","img/image_stim_h.png","72","image-keyboard-response","10","147618","0.0-9.0-1.0","3blr2o","Fri Feb 12 2021 09:49:27 GMT+0100 (Centraleuropæisk normaltid)","2021","2","12","9","49","27","uc11","21","male","right","61","64","98","1","1","","","","","test","happy","happy","h","true"
"null","<div style=""font-size:60px;"">+</div>","null","html-keyboard-response","11","147877","0.0-9.0-0.1","3blr2o","Fri Feb 12 2021 09:49:27 GMT+0100 (Centraleuropæisk normaltid)","2021","2","12","9","49","27","uc11","21","male","right","61","64","98","1","1","","","","","fixation","","","",""
"501.2050000077579","img/image_stim_f_stroop.png","70","image-keyboard-response","12","148381","0.0-9.0-1.1","3blr2o","Fri Feb 12 2021 09:49:27 GMT+0100 (Centraleuropæisk normaltid)","2021","2","12","9","49","27","uc11","21","male","right","61","64","98","1","1","","","","","test","fear","happy","f","true"
"null","<div style=""font-size:60px;"">+</div>","null","html-keyboard-response","13","148636","0.0-9.0-0.2","3blr2o","Fri Feb 12 2021 09:49:27 GMT+0100 (Centraleuropæisk normaltid)","2021","2","12","9","49","27","uc11","21","male","right","61","64","98","1","1","","","","","fixation","","","",""
"569.854999994277","img/image_stim_f.png","70","image-keyboard-response","14","149209","0.0-9.0-1.2","3blr2o","Fri Feb 12 2021 09:49:27 GMT+0100 (Centraleuropæisk normaltid)","2021","2","12","9","49","27","uc11","21","male","right","61","64","98","1","1","","","","","test","fear","fear","f","true"
"null","<div style=""font-size:60px;"">+</div>","null","html-keyboard-response","15","150715","0.0-9.0-0.3","3blr2o","Fri Feb 12 2021 09:49:27 GMT+0100 (Centraleuropæisk normaltid)","2021","2","12","9","49","27","uc11","21","male","right","61","64","98","1","1","","","","","fixation","","","",""
"465.90999999898486","img/image_stim_h_stroop.png","72","image-keyboard-response","16","151184","0.0-9.0-1.3","3blr2o","Fri Feb 12 2021 09:49:27 GMT+0100 (Centraleuropæisk normaltid)","2021","2","12","9","49","27","uc11","21","male","right","61","64","98","1","1","","","","","test","happy","fear","h","true"
"null","<div style=""font-size:60px;"">+</div>","null","html-keyboard-response","17","151941","0.0-9.0-0.4","3blr2o","Fri Feb 12 2021 09:49:27 GMT+0100 (Centraleuropæisk normaltid)","2021","2","12","9","49","27","uc11","21","male","right","61","64","98","1","1","","","","","fixation","","","",""
"391.44999999552965","img/image_stim_h.png","72","image-keyboard-response","18","152335","0.0-9.0-1.4","3blr2o","Fri Feb 12 2021 09:49:27 GMT+0100 (Centraleuropæisk normaltid)","2021","2","12","9","49","27","uc11","21","male","right","61","64","98","1","1","","","","","test","happy","happy","h","true"
"null","<div style=""font-size:60px;"">+</div>","null","html-keyboard-response","19","154342","0.0-9.0-0.5","3blr2o","Fri Feb 12 2021 09:49:27 GMT+0100 (Centraleuropæisk normaltid)","2021","2","12","9","49","27","uc11","21","male","right","61","64","98","1","1","","","","","fixation","","","",""
"460.57499999005813","img/image_stim_f_stroop.png","70","image-keyboard-response","20","154806","0.0-9.0-1.5","3blr2o","Fri Feb 12 2021 09:49:27 GMT+0100 (Centraleuropæisk normaltid)","2021","2","12","9","49","27","uc11","21","male","right","61","64","98","1","1","","","","","test","fear","happy","f","true"
"null","<div style=""font-size:60px;"">+</div>","null","html-keyboard-response","21","156312","0.0-9.0-0.6","3blr2o","Fri Feb 12 2021 09:49:27 GMT+0100 (Centraleuropæisk normaltid)","2021","2","12","9","49","27","uc11","21","male","right","61","64","98","1","1","","","","","fixation","","","",""
"426.8000000010943","img/image_stim_h_stroop.png","72","image-keyboard-response","22","156742","0.0-9.0-1.6","3blr2o","Fri Feb 12 2021 09:49:27 GMT+0100 (Centraleuropæisk normaltid)","2021","2","12","9","49","27","uc11","21","male","right","61","64","98","1","1","","","","","test","happy","fear","h","true"
"null","<div style=""font-size:60px;"">+</div>","null","html-keyboard-response","23","157007","0.0-9.0-0.7","3blr2o","Fri Feb 12 2021 09:49:27 GMT+0100 (Centraleuropæisk normaltid)","2021","2","12","9","49","27","uc11","21","male","right","61","64","98","1","1","","","","","fixation","","","",""
"502.93000000237953","img/image_stim_f.png","70","image-keyboard-response","24","157513","0.0-9.0-1.7","3blr2o","Fri Feb 12 2021 09:49:27 GMT+0100 (Centraleuropæisk normaltid)","2021","2","12","9","49","27","uc11","21","male","right","61","64","98","1","1","","","","","test","fear","fear","f","true"
"null","<div style=""font-size:60px;"">+</div>","null","html-keyboard-response","25","157770","0.0-9.0-0.8","3blr2o","Fri Feb 12 2021 09:49:27 GMT+0100 (Centraleuropæisk normaltid)","2021","2","12","9","49","27","uc11","21","male","right","61","64","98","1","1","","","","","fixation","","","",""
"459.6199999941746","img/image_stim_h_stroop.png","72","image-keyboard-response","26","158233","0.0-9.0-1.8","3blr2o","Fri Feb 12 2021 09:49:27 GMT+0100 (Centraleuropæisk normaltid)","2021","2","12","9","49","27","uc11","21","male","right","61","64","98","1","1","","","","","test","happy","fear","h","true"
"null","<div style=""font-size:60px;"">+</div>","null","html-keyboard-response","27","159488","0.0-9.0-0.9","3blr2o","Fri Feb 12 2021 09:49:27 GMT+0100 (Centraleuropæisk normaltid)","2021","2","12","9","49","27","uc11","21","male","right","61","64","98","1","1","","","","","fixation","","","",""
"418.5750000033295","img/image_stim_f_stroop.png","70","image-keyboard-response","28","159910","0.0-9.0-1.9","3blr2o","Fri Feb 12 2021 09:49:27 GMT+0100 (Centraleuropæisk normaltid)","2021","2","12","9","49","27","uc11","21","male","right","61","64","98","1","1","","","","","test","fear","happy","f","true"
"null","<div style=""font-size:60px;"">+</div>","null","html-keyboard-response","29","161665","0.0-9.0-0.10","3blr2o","Fri Feb 12 2021 09:49:27 GMT+0100 (Centraleuropæisk normaltid)","2021","2","12","9","49","27","uc11","21","male","right","61","64","98","1","1","","","","","fixation","","","",""
"350.2650000009453","img/image_stim_f.png","70","image-keyboard-response","30","162018","0.0-9.0-1.10","3blr2o","Fri Feb 12 2021 09:49:27 GMT+0100 (Centraleuropæisk normaltid)","2021","2","12","9","49","27","uc11","21","male","right","61","64","98","1","1","","","","","test","fear","fear","f","true"
"null","<div style=""font-size:60px;"">+</div>","null","html-keyboard-response","31","163023","0.0-9.0-0.11","3blr2o","Fri Feb 12 2021 09:49:27 GMT+0100 (Centraleuropæisk normaltid)","2021","2","12","9","49","27","uc11","21","male","right","61","64","98","1","1","","","","","fixation","","","",""
"435.21500000497326","img/image_stim_h.png","72","image-keyboard-response","32","163462","0.0-9.0-1.11","3blr2o","Fri Feb 12 2021 09:49:27 GMT+0100 (Centraleuropæisk normaltid)","2021","2","12","9","49","27","uc11","21","male","right","61","64","98","1","1","","","","","test","happy","happy","h","true"
"null","<div style=""font-size:60px;"">+</div>","null","html-keyboard-response","33","163718","0.0-9.0-0.12","3blr2o","Fri Feb 12 2021 09:49:27 GMT+0100 (Centraleuropæisk normaltid)","2021","2","12","9","49","27","uc11","21","male","right","61","64","98","1","1","","","","","fixation","","","",""
"513.7950000062119","img/image_stim_f_stroop.png","70","image-keyboard-response","34","164234","0.0-9.0-1.12","3blr2o","Fri Feb 12 2021 09:49:27 GMT+0100 (Centraleuropæisk normaltid)","2021","2","12","9","49","27","uc11","21","male","right","61","64","98","1","1","","","","","test","fear","happy","f","true"
"null","<div style=""font-size:60px;"">+</div>","null","html-keyboard-response","35","164993","0.0-9.0-0.13","3blr2o","Fri Feb 12 2021 09:49:27 GMT+0100 (Centraleuropæisk normaltid)","2021","2","12","9","49","27","uc11","21","male","right","61","64","98","1","1","","","","","fixation","","","",""
"438.1349999894155","img/image_stim_h.png","72","image-keyboard-response","36","165432","0.0-9.0-1.13","3blr2o","Fri Feb 12 2021 09:49:27 GMT+0100 (Centraleuropæisk normaltid)","2021","2","12","9","49","27","uc11","21","male","right","61","64","98","1","1","","","","","test","happy","happy","h","true"
"null","<div style=""font-size:60px;"">+</div>","null","html-keyboard-response","37","165685","0.0-9.0-0.14","3blr2o","Fri Feb 12 2021 09:49:27 GMT+0100 (Centraleuropæisk normaltid)","2021","2","12","9","49","27","uc11","21","male","right","61","64","98","1","1","","","","","fixation","","","",""
"415.91999999945983","img/image_stim_h_stroop.png","70","image-keyboard-response","38","166102","0.0-9.0-1.14","3blr2o","Fri Feb 12 2021 09:49:27 GMT+0100 (Centraleuropæisk normaltid)","2021","2","12","9","49","27","uc11","21","male","right","61","64","98","1","1","","","","","test","happy","fear","h","false"
"null","<div style=""font-size:60px;"">+</div>","null","html-keyboard-response","39","166606","0.0-9.0-0.15","3blr2o","Fri Feb 12 2021 09:49:27 GMT+0100 (Centraleuropæisk normaltid)","2021","2","12","9","49","27","uc11","21","male","right","61","64","98","1","1","","","","","fixation","","","",""
"631.2999999936437","img/image_stim_f.png","70","image-keyboard-response","40","167238","0.0-9.0-1.15","3blr2o","Fri Feb 12 2021 09:49:27 GMT+0100 (Centraleuropæisk normaltid)","2021","2","12","9","49","27","uc11","21","male","right","61","64","98","1","1","","","","","test","fear","fear","f","true"
"null","<div style=""font-size:60px;"">+</div>","null","html-keyboard-response","41","167993","0.0-9.0-0.16","3blr2o","Fri Feb 12 2021 09:49:27 GMT+0100 (Centraleuropæisk normaltid)","2021","2","12","9","49","27","uc11","21","male","right","61","64","98","1","1","","","","","fixation","","","",""
"530.0850000057835","img/image_stim_h_stroop.png","72","image-keyboard-response","42","168524","0.0-9.0-1.16","3blr2o","Fri Feb 12 2021 09:49:27 GMT+0100 (Centraleuropæisk normaltid)","2021","2","12","9","49","27","uc11","21","male","right","61","64","98","1","1","","","","","test","happy","fear","h","true"
"null","<div style=""font-size:60px;"">+</div>","null","html-keyboard-response","43","169528","0.0-9.0-0.17","3blr2o","Fri Feb 12 2021 09:49:27 GMT+0100 (Centraleuropæisk normaltid)","2021","2","12","9","49","27","uc11","21","male","right","61","64","98","1","1","","","","","fixation","","","",""
"544.6700000029523","img/image_stim_h.png","72","image-keyboard-response","44","170074","0.0-9.0-1.17","3blr2o","Fri Feb 12 2021 09:49:27 GMT+0100 (Centraleuropæisk normaltid)","2021","2","12","9","49","27","uc11","21","male","right","61","64","98","1","1","","","","","test","happy","happy","h","true"
"null","<div style=""font-size:60px;"">+</div>","null","html-keyboard-response","45","171578","0.0-9.0-0.18","3blr2o","Fri Feb 12 2021 09:49:27 GMT+0100 (Centraleuropæisk normaltid)","2021","2","12","9","49","27","uc11","21","male","right","61","64","98","1","1","","","","","fixation","","","",""
"626.0049999982584","img/image_stim_f.png","70","image-keyboard-response","46","172207","0.0-9.0-1.18","3blr2o","Fri Feb 12 2021 09:49:27 GMT+0100 (Centraleuropæisk normaltid)","2021","2","12","9","49","27","uc11","21","male","right","61","64","98","1","1","","","","","test","fear","fear","f","true"
"null","<div style=""font-size:60px;"">+</div>","null","html-keyboard-response","47","173465","0.0-9.0-0.19","3blr2o","Fri Feb 12 2021 09:49:27 GMT+0100 (Centraleuropæisk normaltid)","2021","2","12","9","49","27","uc11","21","male","right","61","64","98","1","1","","","","","fixation","","","",""
"541.5450000000419","img/image_stim_f_stroop.png","72","image-keyboard-response","48","174009","0.0-9.0-1.19","3blr2o","Fri Feb 12 2021 09:49:27 GMT+0100 (Centraleuropæisk normaltid)","2021","2","12","9","49","27","uc11","21","male","right","61","64","98","1","1","","","","","test","fear","happy","f","false"
"null","<div style=""font-size:60px;"">+</div>","null","html-keyboard-response","49","175267","0.0-9.0-0.20","3blr2o","Fri Feb 12 2021 09:49:27 GMT+0100 (Centraleuropæisk normaltid)","2021","2","12","9","49","27","uc11","21","male","right","61","64","98","1","1","","","","","fixation","","","",""
"510.42999999481253","img/image_stim_h.png","72","image-keyboard-response","50","175780","0.0-9.0-1.20","3blr2o","Fri Feb 12 2021 09:49:27 GMT+0100 (Centraleuropæisk normaltid)","2021","2","12","9","49","27","uc11","21","male","right","61","64","98","1","1","","","","","test","happy","happy","h","true"
"null","<div style=""font-size:60px;"">+</div>","null","html-keyboard-response","51","177038","0.0-9.0-0.21","3blr2o","Fri Feb 12 2021 09:49:27 GMT+0100 (Centraleuropæisk normaltid)","2021","2","12","9","49","27","uc11","21","male","right","61","64","98","1","1","","","","","fixation","","","",""
"513.0199999985052","img/image_stim_f.png","70","image-keyboard-response","52","177553","0.0-9.0-1.21","3blr2o","Fri Feb 12 2021 09:49:27 GMT+0100 (Centraleuropæisk normaltid)","2021","2","12","9","49","27","uc11","21","male","right","61","64","98","1","1","","","","","test","fear","fear","f","true"
"null","<div style=""font-size:60px;"">+</div>","null","html-keyboard-response","53","178063","0.0-9.0-0.22","3blr2o","Fri Feb 12 2021 09:49:27 GMT+0100 (Centraleuropæisk normaltid)","2021","2","12","9","49","27","uc11","21","male","right","61","64","98","1","1","","","","","fixation","","","",""
"656.0499999905005","img/image_stim_f_stroop.png","70","image-keyboard-response","54","178722","0.0-9.0-1.22","3blr2o","Fri Feb 12 2021 09:49:27 GMT+0100 (Centraleuropæisk normaltid)","2021","2","12","9","49","27","uc11","21","male","right","61","64","98","1","1","","","","","test","fear","happy","f","true"
"null","<div style=""font-size:60px;"">+</div>","null","html-keyboard-response","55","180481","0.0-9.0-0.23","3blr2o","Fri Feb 12 2021 09:49:27 GMT+0100 (Centraleuropæisk normaltid)","2021","2","12","9","49","27","uc11","21","male","right","61","64","98","1","1","","","","","fixation","","","",""
"570.9550000028685","img/image_stim_h_stroop.png","72","image-keyboard-response","56","181055","0.0-9.0-1.23","3blr2o","Fri Feb 12 2021 09:49:27 GMT+0100 (Centraleuropæisk normaltid)","2021","2","12","9","49","27","uc11","21","male","right","61","64","98","1","1","","","","","test","happy","fear","h","true"
"null","<div style=""font-size:60px;"">+</div>","null","html-keyboard-response","57","181314","0.0-9.0-0.24","3blr2o","Fri Feb 12 2021 09:49:27 GMT+0100 (Centraleuropæisk normaltid)","2021","2","12","9","49","27","uc11","21","male","right","61","64","98","1","1","","","","","fixation","","","",""
"673.4700000088196","img/image_stim_f_stroop.png","70","image-keyboard-response","58","181990","0.0-9.0-1.24","3blr2o","Fri Feb 12 2021 09:49:27 GMT+0100 (Centraleuropæisk normaltid)","2021","2","12","9","49","27","uc11","21","male","right","61","64","98","1","1","","","","","test","fear","happy","f","true"
"null","<div style=""font-size:60px;"">+</div>","null","html-keyboard-response","59","183999","0.0-9.0-0.25","3blr2o","Fri Feb 12 2021 09:49:27 GMT+0100 (Centraleuropæisk normaltid)","2021","2","12","9","49","27","uc11","21","male","right","61","64","98","1","1","","","","","fixation","","","",""
"504.9399999988964","img/image_stim_f.png","70","image-keyboard-response","60","184507","0.0-9.0-1.25","3blr2o","Fri Feb 12 2021 09:49:27 GMT+0100 (Centraleuropæisk normaltid)","2021","2","12","9","49","27","uc11","21","male","right","61","64","98","1","1","","","","","test","fear","fear","f","true"
"null","<div style=""font-size:60px;"">+</div>","null","html-keyboard-response","61","185265","0.0-9.0-0.26","3blr2o","Fri Feb 12 2021 09:49:27 GMT+0100 (Centraleuropæisk normaltid)","2021","2","12","9","49","27","uc11","21","male","right","61","64","98","1","1","","","","","fixation","","","",""
"674.4349999935366","img/image_stim_h.png","72","image-keyboard-response","62","185942","0.0-9.0-1.26","3blr2o","Fri Feb 12 2021 09:49:27 GMT+0100 (Centraleuropæisk normaltid)","2021","2","12","9","49","27","uc11","21","male","right","61","64","98","1","1","","","","","test","happy","happy","h","true"
"null","<div style=""font-size:60px;"">+</div>","null","html-keyboard-response","63","186953","0.0-9.0-0.27","3blr2o","Fri Feb 12 2021 09:49:27 GMT+0100 (Centraleuropæisk normaltid)","2021","2","12","9","49","27","uc11","21","male","right","61","64","98","1","1","","","","","fixation","","","",""
"555.9450000000652","img/image_stim_h_stroop.png","72","image-keyboard-response","64","187512","0.0-9.0-1.27","3blr2o","Fri Feb 12 2021 09:49:27 GMT+0100 (Centraleuropæisk normaltid)","2021","2","12","9","49","27","uc11","21","male","right","61","64","98","1","1","","","","","test","happy","fear","h","true"
"null","<div style=""font-size:60px;"">+</div>","null","html-keyboard-response","65","187771","0.0-9.0-0.28","3blr2o","Fri Feb 12 2021 09:49:27 GMT+0100 (Centraleuropæisk normaltid)","2021","2","12","9","49","27","uc11","21","male","right","61","64","98","1","1","","","","","fixation","","","",""
"414.4150000065565","img/image_stim_h.png","72","image-keyboard-response","66","188188","0.0-9.0-1.28","3blr2o","Fri Feb 12 2021 09:49:27 GMT+0100 (Centraleuropæisk normaltid)","2021","2","12","9","49","27","uc11","21","male","right","61","64","98","1","1","","","","","test","happy","happy","h","true"
"null","<div style=""font-size:60px;"">+</div>","null","html-keyboard-response","67","188947","0.0-9.0-0.29","3blr2o","Fri Feb 12 2021 09:49:27 GMT+0100 (Centraleuropæisk normaltid)","2021","2","12","9","49","27","uc11","21","male","right","61","64","98","1","1","","","","","fixation","","","",""
"420.32999999355525","img/image_stim_f.png","70","image-keyboard-response","68","189373","0.0-9.0-1.29","3blr2o","Fri Feb 12 2021 09:49:27 GMT+0100 (Centraleuropæisk normaltid)","2021","2","12","9","49","27","uc11","21","male","right","61","64","98","1","1","","","","","test","fear","fear","f","true"
"null","<div style=""font-size:60px;"">+</div>","null","html-keyboard-response","69","190383","0.0-9.0-0.30","3blr2o","Fri Feb 12 2021 09:49:27 GMT+0100 (Centraleuropæisk normaltid)","2021","2","12","9","49","27","uc11","21","male","right","61","64","98","1","1","","","","","fixation","","","",""
"609.98500000278","img/image_stim_f_stroop.png","70","image-keyboard-response","70","190996","0.0-9.0-1.30","3blr2o","Fri Feb 12 2021 09:49:27 GMT+0100 (Centraleuropæisk normaltid)","2021","2","12","9","49","27","uc11","21","male","right","61","64","98","1","1","","","","","test","fear","happy","f","true"
"null","<div style=""font-size:60px;"">+</div>","null","html-keyboard-response","71","193005","0.0-9.0-0.31","3blr2o","Fri Feb 12 2021 09:49:27 GMT+0100 (Centraleuropæisk normaltid)","2021","2","12","9","49","27","uc11","21","male","right","61","64","98","1","1","","","","","fixation","","","",""
"476.6799999924842","img/image_stim_h_stroop.png","72","image-keyboard-response","72","193484","0.0-9.0-1.31","3blr2o","Fri Feb 12 2021 09:49:27 GMT+0100 (Centraleuropæisk normaltid)","2021","2","12","9","49","27","uc11","21","male","right","61","64","98","1","1","","","","","test","happy","fear","h","true"
"null","<div style=""font-size:60px;"">+</div>","null","html-keyboard-response","73","194994","0.0-9.0-0.32","3blr2o","Fri Feb 12 2021 09:49:27 GMT+0100 (Centraleuropæisk normaltid)","2021","2","12","9","49","27","uc11","21","male","right","61","64","98","1","1","","","","","fixation","","","",""
"359.9499999982072","img/image_stim_h_stroop.png","72","image-keyboard-response","74","195357","0.0-9.0-1.32","3blr2o","Fri Feb 12 2021 09:49:27 GMT+0100 (Centraleuropæisk normaltid)","2021","2","12","9","49","27","uc11","21","male","right","61","64","98","1","1","","","","","test","happy","fear","h","true"
"null","<div style=""font-size:60px;"">+</div>","null","html-keyboard-response","75","195617","0.0-9.0-0.33","3blr2o","Fri Feb 12 2021 09:49:27 GMT+0100 (Centraleuropæisk normaltid)","2021","2","12","9","49","27","uc11","21","male","right","61","64","98","1","1","","","","","fixation","","","",""
"427.8199999971548","img/image_stim_f.png","70","image-keyboard-response","76","196048","0.0-9.0-1.33","3blr2o","Fri Feb 12 2021 09:49:27 GMT+0100 (Centraleuropæisk normaltid)","2021","2","12","9","49","27","uc11","21","male","right","61","64","98","1","1","","","","","test","fear","fear","f","true"
"null","<div style=""font-size:60px;"">+</div>","null","html-keyboard-response","77","197559","0.0-9.0-0.34","3blr2o","Fri Feb 12 2021 09:49:27 GMT+0100 (Centraleuropæisk normaltid)","2021","2","12","9","49","27","uc11","21","male","right","61","64","98","1","1","","","","","fixation","","","",""
"484.38500000338536","img/image_stim_h.png","72","image-keyboard-response","78","198047","0.0-9.0-1.34","3blr2o","Fri Feb 12 2021 09:49:27 GMT+0100 (Centraleuropæisk normaltid)","2021","2","12","9","49","27","uc11","21","male","right","61","64","98","1","1","","","","","test","happy","happy","h","true"
"null","<div style=""font-size:60px;"">+</div>","null","html-keyboard-response","79","199307","0.0-9.0-0.35","3blr2o","Fri Feb 12 2021 09:49:27 GMT+0100 (Centraleuropæisk normaltid)","2021","2","12","9","49","27","uc11","21","male","right","61","64","98","1","1","","","","","fixation","","","",""
"469.729999997071","img/image_stim_f_stroop.png","70","image-keyboard-response","80","199784","0.0-9.0-1.35","3blr2o","Fri Feb 12 2021 09:49:27 GMT+0100 (Centraleuropæisk normaltid)","2021","2","12","9","49","27","uc11","21","male","right","61","64","98","1","1","","","","","test","fear","happy","f","true"
