"rt","stimulus","key_press","trial_type","trial_index","time_elapsed","internal_node_id","exp_id","Time","year","month","date","hour","minute","seconds","id","age","Gender","Handedness","mood","fresh","hunger","H_since_Sleep","H_since_Eat","responses","question_order","slider_start","response","test_part","face","word","correct_response","correct"
"28340","<p>Welcome to this experiment on daily rhythms and cognition.</p><p>First you will be asked some questions about yourself.</p><p>Then a short experiment will measure your response time.</p><p>Take the test at different times of the day/night.</p><p>The test is anonymous, but comparing your data across time is important.</p><p>Therefore, please make up and remember a personal ID (two letters+ two numbers).</p><p>Use this ID whenever taking the test.</p><p><strong>Press any key to begin.</strong></p>","32","html-keyboard-response","0","28343","0.0-0.0","6023qy","Fri Feb 11 2022 12:35:52 GMT+0100 (CET)","2022","2","11","12","35","52","mw73","48","male","right","83","91","5","6","5","","","","","","","","",""
"7153.999999999996","","","survey-text","1","35537","0.0-1.0","6023qy","Fri Feb 11 2022 12:35:52 GMT+0100 (CET)","2022","2","11","12","35","52","mw73","48","male","right","83","91","5","6","5","{""Q0"":""mw73""}","","","","","","","",""
"4002","","","survey-text","2","39545","0.0-2.0","6023qy","Fri Feb 11 2022 12:35:52 GMT+0100 (CET)","2022","2","11","12","35","52","mw73","48","male","right","83","91","5","6","5","{""Q0"":""48""}","","","","","","","",""
"4246","","","survey-multi-select","3","43793","0.0-3.0","6023qy","Fri Feb 11 2022 12:35:52 GMT+0100 (CET)","2022","2","11","12","35","52","mw73","48","male","right","83","91","5","6","5","{""Gender"":[""male""],""Hand"":[""right""]}","[0,1]","","","","","","",""
"15625","<p>How Sad/Angry or Happy are you right now?</p>","","html-slider-response","4","59425","0.0-4.0","6023qy","Fri Feb 11 2022 12:35:52 GMT+0100 (CET)","2022","2","11","12","35","52","mw73","48","male","right","83","91","5","6","5","","","50","83","","","","",""
"5205","<p>How Tired/Sleepy/Distracted or Fresh/Awake/Alert are you right now?</p>","","html-slider-response","5","64631","0.0-5.0","6023qy","Fri Feb 11 2022 12:35:52 GMT+0100 (CET)","2022","2","11","12","35","52","mw73","48","male","right","83","91","5","6","5","","","50","91","","","","",""
"5034.999999999993","<p>How Hungry or Satiated are you right now?</p>","","html-slider-response","6","69668","0.0-6.0","6023qy","Fri Feb 11 2022 12:35:52 GMT+0100 (CET)","2022","2","11","12","35","52","mw73","48","male","right","83","91","5","6","5","","","50","5","","","","",""
"45859","","","survey-multi-select","7","115538","0.0-7.0","6023qy","Fri Feb 11 2022 12:35:52 GMT+0100 (CET)","2022","2","11","12","35","52","mw73","48","male","right","83","91","5","6","5","{""Sleep"":[""6""],""Eat"":[""5""]}","[0,1]","","","","","","",""
"29785","<p>In this experiment, a face and a word will appear in the center of the screen.</p><p>If the face is <strong>happy</strong>, press the letter <strong>H</strong> with <strong>right</strong> index finger.</p><p>If the face is <strong>fearful</strong>, press the letter <strong>F</strong> with <strong>left</strong> index finger.</p><p><strong>Ignore the written words</strong>. Respond as fast as possible while being correct. </p><div style='width: 900px;'><div style='float: left;'><img src='img/stimuli_stroop_happy.png'></img><p class='small'><strong>Press the H key for happy faces</strong></p></div><div class='float: right;'><img src='img/stimuli_stroop_fear.png'></img><p class='small'><strong>Press the F key for faces with fear</strong></p></div></div><p>If the screen turns blank, press <strong>SPACE</strong></p><p><strong>Press any key to begin.</strong></p>","32","html-keyboard-response","8","145326","0.0-8.0","6023qy","Fri Feb 11 2022 12:35:52 GMT+0100 (CET)","2022","2","11","12","35","52","mw73","48","male","right","83","91","5","6","5","","","","","","","","",""
"null","<div style=""font-size:60px;"">+</div>","null","html-keyboard-response","9","149078","0.0-9.0-0.0","6023qy","Fri Feb 11 2022 12:35:52 GMT+0100 (CET)","2022","2","11","12","35","52","mw73","48","male","right","83","91","5","6","5","","","","","fixation","","","",""
"701","img/image_stim_h_stroop.png","72","image-keyboard-response","10","149782","0.0-9.0-1.0","6023qy","Fri Feb 11 2022 12:35:52 GMT+0100 (CET)","2022","2","11","12","35","52","mw73","48","male","right","83","91","5","6","5","","","","","test","happy","fear","h","true"
"null","<div style=""font-size:60px;"">+</div>","null","html-keyboard-response","11","150035","0.0-9.0-0.1","6023qy","Fri Feb 11 2022 12:35:52 GMT+0100 (CET)","2022","2","11","12","35","52","mw73","48","male","right","83","91","5","6","5","","","","","fixation","","","",""
"646","img/image_stim_f_stroop.png","70","image-keyboard-response","12","150685","0.0-9.0-1.1","6023qy","Fri Feb 11 2022 12:35:52 GMT+0100 (CET)","2022","2","11","12","35","52","mw73","48","male","right","83","91","5","6","5","","","","","test","fear","happy","f","true"
"null","<div style=""font-size:60px;"">+</div>","null","html-keyboard-response","13","152187","0.0-9.0-0.2","6023qy","Fri Feb 11 2022 12:35:52 GMT+0100 (CET)","2022","2","11","12","35","52","mw73","48","male","right","83","91","5","6","5","","","","","fixation","","","",""
"850.0000000000291","img/image_stim_f.png","70","image-keyboard-response","14","153042","0.0-9.0-1.2","6023qy","Fri Feb 11 2022 12:35:52 GMT+0100 (CET)","2022","2","11","12","35","52","mw73","48","male","right","83","91","5","6","5","","","","","test","fear","fear","f","true"
"null","<div style=""font-size:60px;"">+</div>","null","html-keyboard-response","15","153794","0.0-9.0-0.3","6023qy","Fri Feb 11 2022 12:35:52 GMT+0100 (CET)","2022","2","11","12","35","52","mw73","48","male","right","83","91","5","6","5","","","","","fixation","","","",""
"783.9999999999709","img/image_stim_h.png","72","image-keyboard-response","16","154581","0.0-9.0-1.3","6023qy","Fri Feb 11 2022 12:35:52 GMT+0100 (CET)","2022","2","11","12","35","52","mw73","48","male","right","83","91","5","6","5","","","","","test","happy","happy","h","true"
"null","<div style=""font-size:60px;"">+</div>","null","html-keyboard-response","17","155585","0.0-9.0-0.4","6023qy","Fri Feb 11 2022 12:35:52 GMT+0100 (CET)","2022","2","11","12","35","52","mw73","48","male","right","83","91","5","6","5","","","","","fixation","","","",""
"660","img/image_stim_f.png","70","image-keyboard-response","18","156246","0.0-9.0-1.4","6023qy","Fri Feb 11 2022 12:35:52 GMT+0100 (CET)","2022","2","11","12","35","52","mw73","48","male","right","83","91","5","6","5","","","","","test","fear","fear","f","true"
"null","<div style=""font-size:60px;"">+</div>","null","html-keyboard-response","19","157498","0.0-9.0-0.5","6023qy","Fri Feb 11 2022 12:35:52 GMT+0100 (CET)","2022","2","11","12","35","52","mw73","48","male","right","83","91","5","6","5","","","","","fixation","","","",""
"771","img/image_stim_h.png","72","image-keyboard-response","20","158269","0.0-9.0-1.5","6023qy","Fri Feb 11 2022 12:35:52 GMT+0100 (CET)","2022","2","11","12","35","52","mw73","48","male","right","83","91","5","6","5","","","","","test","happy","happy","h","true"
"null","<div style=""font-size:60px;"">+</div>","null","html-keyboard-response","21","158772","0.0-9.0-0.6","6023qy","Fri Feb 11 2022 12:35:52 GMT+0100 (CET)","2022","2","11","12","35","52","mw73","48","male","right","83","91","5","6","5","","","","","fixation","","","",""
"792","img/image_stim_h_stroop.png","72","image-keyboard-response","22","159564","0.0-9.0-1.6","6023qy","Fri Feb 11 2022 12:35:52 GMT+0100 (CET)","2022","2","11","12","35","52","mw73","48","male","right","83","91","5","6","5","","","","","test","happy","fear","h","true"
"null","<div style=""font-size:60px;"">+</div>","null","html-keyboard-response","23","161066","0.0-9.0-0.7","6023qy","Fri Feb 11 2022 12:35:52 GMT+0100 (CET)","2022","2","11","12","35","52","mw73","48","male","right","83","91","5","6","5","","","","","fixation","","","",""
"730.0000000000291","img/image_stim_f_stroop.png","70","image-keyboard-response","24","161798","0.0-9.0-1.7","6023qy","Fri Feb 11 2022 12:35:52 GMT+0100 (CET)","2022","2","11","12","35","52","mw73","48","male","right","83","91","5","6","5","","","","","test","fear","happy","f","true"
"null","<div style=""font-size:60px;"">+</div>","null","html-keyboard-response","25","163050","0.0-9.0-0.8","6023qy","Fri Feb 11 2022 12:35:52 GMT+0100 (CET)","2022","2","11","12","35","52","mw73","48","male","right","83","91","5","6","5","","","","","fixation","","","",""
"754","img/image_stim_f.png","70","image-keyboard-response","26","163806","0.0-9.0-1.8","6023qy","Fri Feb 11 2022 12:35:52 GMT+0100 (CET)","2022","2","11","12","35","52","mw73","48","male","right","83","91","5","6","5","","","","","test","fear","fear","f","true"
"null","<div style=""font-size:60px;"">+</div>","null","html-keyboard-response","27","165308","0.0-9.0-0.9","6023qy","Fri Feb 11 2022 12:35:52 GMT+0100 (CET)","2022","2","11","12","35","52","mw73","48","male","right","83","91","5","6","5","","","","","fixation","","","",""
"609","img/image_stim_f_stroop.png","70","image-keyboard-response","28","165917","0.0-9.0-1.9","6023qy","Fri Feb 11 2022 12:35:52 GMT+0100 (CET)","2022","2","11","12","35","52","mw73","48","male","right","83","91","5","6","5","","","","","test","fear","happy","f","true"
"null","<div style=""font-size:60px;"">+</div>","null","html-keyboard-response","29","167670","0.0-9.0-0.10","6023qy","Fri Feb 11 2022 12:35:52 GMT+0100 (CET)","2022","2","11","12","35","52","mw73","48","male","right","83","91","5","6","5","","","","","fixation","","","",""
"639","img/image_stim_h.png","72","image-keyboard-response","30","168310","0.0-9.0-1.10","6023qy","Fri Feb 11 2022 12:35:52 GMT+0100 (CET)","2022","2","11","12","35","52","mw73","48","male","right","83","91","5","6","5","","","","","test","happy","happy","h","true"
"null","<div style=""font-size:60px;"">+</div>","null","html-keyboard-response","31","170062","0.0-9.0-0.11","6023qy","Fri Feb 11 2022 12:35:52 GMT+0100 (CET)","2022","2","11","12","35","52","mw73","48","male","right","83","91","5","6","5","","","","","fixation","","","",""
"776","img/image_stim_h_stroop.png","72","image-keyboard-response","32","170838","0.0-9.0-1.11","6023qy","Fri Feb 11 2022 12:35:52 GMT+0100 (CET)","2022","2","11","12","35","52","mw73","48","male","right","83","91","5","6","5","","","","","test","happy","fear","h","true"
"null","<div style=""font-size:60px;"">+</div>","null","html-keyboard-response","33","171841","0.0-9.0-0.12","6023qy","Fri Feb 11 2022 12:35:52 GMT+0100 (CET)","2022","2","11","12","35","52","mw73","48","male","right","83","91","5","6","5","","","","","fixation","","","",""
"612","img/image_stim_h_stroop.png","72","image-keyboard-response","34","172454","0.0-9.0-1.12","6023qy","Fri Feb 11 2022 12:35:52 GMT+0100 (CET)","2022","2","11","12","35","52","mw73","48","male","right","83","91","5","6","5","","","","","test","happy","fear","h","true"
"null","<div style=""font-size:60px;"">+</div>","null","html-keyboard-response","35","173707","0.0-9.0-0.13","6023qy","Fri Feb 11 2022 12:35:52 GMT+0100 (CET)","2022","2","11","12","35","52","mw73","48","male","right","83","91","5","6","5","","","","","fixation","","","",""
"578.0000000000291","img/image_stim_h.png","72","image-keyboard-response","36","174286","0.0-9.0-1.13","6023qy","Fri Feb 11 2022 12:35:52 GMT+0100 (CET)","2022","2","11","12","35","52","mw73","48","male","right","83","91","5","6","5","","","","","test","happy","happy","h","true"
"null","<div style=""font-size:60px;"">+</div>","null","html-keyboard-response","37","174538","0.0-9.0-0.14","6023qy","Fri Feb 11 2022 12:35:52 GMT+0100 (CET)","2022","2","11","12","35","52","mw73","48","male","right","83","91","5","6","5","","","","","fixation","","","",""
"723","img/image_stim_f.png","70","image-keyboard-response","38","175262","0.0-9.0-1.14","6023qy","Fri Feb 11 2022 12:35:52 GMT+0100 (CET)","2022","2","11","12","35","52","mw73","48","male","right","83","91","5","6","5","","","","","test","fear","fear","f","true"
"null","<div style=""font-size:60px;"">+</div>","null","html-keyboard-response","39","176264","0.0-9.0-0.15","6023qy","Fri Feb 11 2022 12:35:52 GMT+0100 (CET)","2022","2","11","12","35","52","mw73","48","male","right","83","91","5","6","5","","","","","fixation","","","",""
"709","img/image_stim_f_stroop.png","70","image-keyboard-response","40","176974","0.0-9.0-1.15","6023qy","Fri Feb 11 2022 12:35:52 GMT+0100 (CET)","2022","2","11","12","35","52","mw73","48","male","right","83","91","5","6","5","","","","","test","fear","happy","f","true"
"null","<div style=""font-size:60px;"">+</div>","null","html-keyboard-response","41","177976","0.0-9.0-0.16","6023qy","Fri Feb 11 2022 12:35:52 GMT+0100 (CET)","2022","2","11","12","35","52","mw73","48","male","right","83","91","5","6","5","","","","","fixation","","","",""
"693.9999999999709","img/image_stim_h_stroop.png","72","image-keyboard-response","42","178670","0.0-9.0-1.16","6023qy","Fri Feb 11 2022 12:35:52 GMT+0100 (CET)","2022","2","11","12","35","52","mw73","48","male","right","83","91","5","6","5","","","","","test","happy","fear","h","true"
"null","<div style=""font-size:60px;"">+</div>","null","html-keyboard-response","43","179673","0.0-9.0-0.17","6023qy","Fri Feb 11 2022 12:35:52 GMT+0100 (CET)","2022","2","11","12","35","52","mw73","48","male","right","83","91","5","6","5","","","","","fixation","","","",""
"1275","img/image_stim_f.png","70","image-keyboard-response","44","180948","0.0-9.0-1.17","6023qy","Fri Feb 11 2022 12:35:52 GMT+0100 (CET)","2022","2","11","12","35","52","mw73","48","male","right","83","91","5","6","5","","","","","test","fear","fear","f","true"
"null","<div style=""font-size:60px;"">+</div>","null","html-keyboard-response","45","182701","0.0-9.0-0.18","6023qy","Fri Feb 11 2022 12:35:52 GMT+0100 (CET)","2022","2","11","12","35","52","mw73","48","male","right","83","91","5","6","5","","","","","fixation","","","",""
"665","img/image_stim_h.png","72","image-keyboard-response","46","183366","0.0-9.0-1.18","6023qy","Fri Feb 11 2022 12:35:52 GMT+0100 (CET)","2022","2","11","12","35","52","mw73","48","male","right","83","91","5","6","5","","","","","test","happy","happy","h","true"
"null","<div style=""font-size:60px;"">+</div>","null","html-keyboard-response","47","184620","0.0-9.0-0.19","6023qy","Fri Feb 11 2022 12:35:52 GMT+0100 (CET)","2022","2","11","12","35","52","mw73","48","male","right","83","91","5","6","5","","","","","fixation","","","",""
"553","img/image_stim_f_stroop.png","70","image-keyboard-response","48","185174","0.0-9.0-1.19","6023qy","Fri Feb 11 2022 12:35:52 GMT+0100 (CET)","2022","2","11","12","35","52","mw73","48","male","right","83","91","5","6","5","","","","","test","fear","happy","f","true"
"null","<div style=""font-size:60px;"">+</div>","null","html-keyboard-response","49","186427","0.0-9.0-0.20","6023qy","Fri Feb 11 2022 12:35:52 GMT+0100 (CET)","2022","2","11","12","35","52","mw73","48","male","right","83","91","5","6","5","","","","","fixation","","","",""
"747","img/image_stim_f_stroop.png","70","image-keyboard-response","50","187174","0.0-9.0-1.20","6023qy","Fri Feb 11 2022 12:35:52 GMT+0100 (CET)","2022","2","11","12","35","52","mw73","48","male","right","83","91","5","6","5","","","","","test","fear","happy","f","true"
"null","<div style=""font-size:60px;"">+</div>","null","html-keyboard-response","51","188177","0.0-9.0-0.21","6023qy","Fri Feb 11 2022 12:35:52 GMT+0100 (CET)","2022","2","11","12","35","52","mw73","48","male","right","83","91","5","6","5","","","","","fixation","","","",""
"677","img/image_stim_h.png","72","image-keyboard-response","52","188855","0.0-9.0-1.21","6023qy","Fri Feb 11 2022 12:35:52 GMT+0100 (CET)","2022","2","11","12","35","52","mw73","48","male","right","83","91","5","6","5","","","","","test","happy","happy","h","true"
"null","<div style=""font-size:60px;"">+</div>","null","html-keyboard-response","53","190858","0.0-9.0-0.22","6023qy","Fri Feb 11 2022 12:35:52 GMT+0100 (CET)","2022","2","11","12","35","52","mw73","48","male","right","83","91","5","6","5","","","","","fixation","","","",""
"657","img/image_stim_h_stroop.png","72","image-keyboard-response","54","191516","0.0-9.0-1.22","6023qy","Fri Feb 11 2022 12:35:52 GMT+0100 (CET)","2022","2","11","12","35","52","mw73","48","male","right","83","91","5","6","5","","","","","test","happy","fear","h","true"
"null","<div style=""font-size:60px;"">+</div>","null","html-keyboard-response","55","192519","0.0-9.0-0.23","6023qy","Fri Feb 11 2022 12:35:52 GMT+0100 (CET)","2022","2","11","12","35","52","mw73","48","male","right","83","91","5","6","5","","","","","fixation","","","",""
"695.0000000000291","img/image_stim_f.png","70","image-keyboard-response","56","193215","0.0-9.0-1.23","6023qy","Fri Feb 11 2022 12:35:52 GMT+0100 (CET)","2022","2","11","12","35","52","mw73","48","male","right","83","91","5","6","5","","","","","test","fear","fear","f","true"
"null","<div style=""font-size:60px;"">+</div>","null","html-keyboard-response","57","193718","0.0-9.0-0.24","6023qy","Fri Feb 11 2022 12:35:52 GMT+0100 (CET)","2022","2","11","12","35","52","mw73","48","male","right","83","91","5","6","5","","","","","fixation","","","",""
"768","img/image_stim_f_stroop.png","70","image-keyboard-response","58","194487","0.0-9.0-1.24","6023qy","Fri Feb 11 2022 12:35:52 GMT+0100 (CET)","2022","2","11","12","35","52","mw73","48","male","right","83","91","5","6","5","","","","","test","fear","happy","f","true"
"null","<div style=""font-size:60px;"">+</div>","null","html-keyboard-response","59","196241","0.0-9.0-0.25","6023qy","Fri Feb 11 2022 12:35:52 GMT+0100 (CET)","2022","2","11","12","35","52","mw73","48","male","right","83","91","5","6","5","","","","","fixation","","","",""
"605","img/image_stim_h_stroop.png","72","image-keyboard-response","60","196847","0.0-9.0-1.25","6023qy","Fri Feb 11 2022 12:35:52 GMT+0100 (CET)","2022","2","11","12","35","52","mw73","48","male","right","83","91","5","6","5","","","","","test","happy","fear","h","true"
"null","<div style=""font-size:60px;"">+</div>","null","html-keyboard-response","61","197099","0.0-9.0-0.26","6023qy","Fri Feb 11 2022 12:35:52 GMT+0100 (CET)","2022","2","11","12","35","52","mw73","48","male","right","83","91","5","6","5","","","","","fixation","","","",""
"732","img/image_stim_h.png","72","image-keyboard-response","62","197832","0.0-9.0-1.26","6023qy","Fri Feb 11 2022 12:35:52 GMT+0100 (CET)","2022","2","11","12","35","52","mw73","48","male","right","83","91","5","6","5","","","","","test","happy","happy","h","true"
"null","<div style=""font-size:60px;"">+</div>","null","html-keyboard-response","63","198085","0.0-9.0-0.27","6023qy","Fri Feb 11 2022 12:35:52 GMT+0100 (CET)","2022","2","11","12","35","52","mw73","48","male","right","83","91","5","6","5","","","","","fixation","","","",""
"673","img/image_stim_f.png","70","image-keyboard-response","64","198759","0.0-9.0-1.27","6023qy","Fri Feb 11 2022 12:35:52 GMT+0100 (CET)","2022","2","11","12","35","52","mw73","48","male","right","83","91","5","6","5","","","","","test","fear","fear","f","true"
"null","<div style=""font-size:60px;"">+</div>","null","html-keyboard-response","65","200762","0.0-9.0-0.28","6023qy","Fri Feb 11 2022 12:35:52 GMT+0100 (CET)","2022","2","11","12","35","52","mw73","48","male","right","83","91","5","6","5","","","","","fixation","","","",""
"756","img/image_stim_f.png","70","image-keyboard-response","66","201519","0.0-9.0-1.28","6023qy","Fri Feb 11 2022 12:35:52 GMT+0100 (CET)","2022","2","11","12","35","52","mw73","48","male","right","83","91","5","6","5","","","","","test","fear","fear","f","true"
"null","<div style=""font-size:60px;"">+</div>","null","html-keyboard-response","67","202271","0.0-9.0-0.29","6023qy","Fri Feb 11 2022 12:35:52 GMT+0100 (CET)","2022","2","11","12","35","52","mw73","48","male","right","83","91","5","6","5","","","","","fixation","","","",""
"582","img/image_stim_h.png","72","image-keyboard-response","68","202854","0.0-9.0-1.29","6023qy","Fri Feb 11 2022 12:35:52 GMT+0100 (CET)","2022","2","11","12","35","52","mw73","48","male","right","83","91","5","6","5","","","","","test","happy","happy","h","true"
"null","<div style=""font-size:60px;"">+</div>","null","html-keyboard-response","69","204357","0.0-9.0-0.30","6023qy","Fri Feb 11 2022 12:35:52 GMT+0100 (CET)","2022","2","11","12","35","52","mw73","48","male","right","83","91","5","6","5","","","","","fixation","","","",""
"567.9999999999709","img/image_stim_h_stroop.png","72","image-keyboard-response","70","204926","0.0-9.0-1.30","6023qy","Fri Feb 11 2022 12:35:52 GMT+0100 (CET)","2022","2","11","12","35","52","mw73","48","male","right","83","91","5","6","5","","","","","test","happy","fear","h","true"
"null","<div style=""font-size:60px;"">+</div>","null","html-keyboard-response","71","206429","0.0-9.0-0.31","6023qy","Fri Feb 11 2022 12:35:52 GMT+0100 (CET)","2022","2","11","12","35","52","mw73","48","male","right","83","91","5","6","5","","","","","fixation","","","",""
"552","img/image_stim_f_stroop.png","70","image-keyboard-response","72","206983","0.0-9.0-1.31","6023qy","Fri Feb 11 2022 12:35:52 GMT+0100 (CET)","2022","2","11","12","35","52","mw73","48","male","right","83","91","5","6","5","","","","","test","fear","happy","f","true"
"null","<div style=""font-size:60px;"">+</div>","null","html-keyboard-response","73","208990","0.0-9.0-0.32","6023qy","Fri Feb 11 2022 12:35:52 GMT+0100 (CET)","2022","2","11","12","35","52","mw73","48","male","right","83","91","5","6","5","","","","","fixation","","","",""
"648","img/image_stim_f.png","70","image-keyboard-response","74","209639","0.0-9.0-1.32","6023qy","Fri Feb 11 2022 12:35:52 GMT+0100 (CET)","2022","2","11","12","35","52","mw73","48","male","right","83","91","5","6","5","","","","","test","fear","fear","f","true"
"null","<div style=""font-size:60px;"">+</div>","null","html-keyboard-response","75","210642","0.0-9.0-0.33","6023qy","Fri Feb 11 2022 12:35:52 GMT+0100 (CET)","2022","2","11","12","35","52","mw73","48","male","right","83","91","5","6","5","","","","","fixation","","","",""
"553","img/image_stim_f_stroop.png","70","image-keyboard-response","76","211198","0.0-9.0-1.33","6023qy","Fri Feb 11 2022 12:35:52 GMT+0100 (CET)","2022","2","11","12","35","52","mw73","48","male","right","83","91","5","6","5","","","","","test","fear","happy","f","true"
"null","<div style=""font-size:60px;"">+</div>","null","html-keyboard-response","77","212951","0.0-9.0-0.34","6023qy","Fri Feb 11 2022 12:35:52 GMT+0100 (CET)","2022","2","11","12","35","52","mw73","48","male","right","83","91","5","6","5","","","","","fixation","","","",""
"519.0000000000291","img/image_stim_h_stroop.png","72","image-keyboard-response","78","213471","0.0-9.0-1.34","6023qy","Fri Feb 11 2022 12:35:52 GMT+0100 (CET)","2022","2","11","12","35","52","mw73","48","male","right","83","91","5","6","5","","","","","test","happy","fear","h","true"
"null","<div style=""font-size:60px;"">+</div>","null","html-keyboard-response","79","215224","0.0-9.0-0.35","6023qy","Fri Feb 11 2022 12:35:52 GMT+0100 (CET)","2022","2","11","12","35","52","mw73","48","male","right","83","91","5","6","5","","","","","fixation","","","",""
"549","img/image_stim_h.png","72","image-keyboard-response","80","215775","0.0-9.0-1.35","6023qy","Fri Feb 11 2022 12:35:52 GMT+0100 (CET)","2022","2","11","12","35","52","mw73","48","male","right","83","91","5","6","5","","","","","test","happy","happy","h","true"
