"rt","stimulus","key_press","trial_type","trial_index","time_elapsed","internal_node_id","exp_id","Time","year","month","date","hour","minute","seconds","id","age","Gender","Handedness","mood","fresh","hunger","H_since_Sleep","H_since_Eat","responses","question_order","slider_start","response","test_part","face","word","correct_response","correct"
"2819.390000018757","<p>Welcome to this experiment on daily rhythms and cognition.</p><p>First you will be asked some questions about yourself.</p><p>Then a short experiment will measure your response time.</p><p>Take the test at different times of the day/night.</p><p>The test is anonymous, but comparing your data across time is important.</p><p>Therefore, please make up and remember a personal ID (two letters+ two numbers).</p><p>Use this ID whenever taking the test.</p><p><strong>Press any key to begin.</strong></p>","32","html-keyboard-response","0","2820","0.0-0.0","ztxxun","Tue Feb 16 2021 11:39:22 GMT+0100 (Central European Standard Time)","2021","2","16","11","39","22","sh19","22","male","right","90","67","25","3","2","","","","","","","","",""
"12868.109999981243","","","survey-text","1","15693","0.0-1.0","ztxxun","Tue Feb 16 2021 11:39:22 GMT+0100 (Central European Standard Time)","2021","2","16","11","39","22","sh19","22","male","right","90","67","25","3","2","{""Q0"":""sh19""}","","","","","","","",""
"3532.835000019986","","","survey-text","2","19228","0.0-2.0","ztxxun","Tue Feb 16 2021 11:39:22 GMT+0100 (Central European Standard Time)","2021","2","16","11","39","22","sh19","22","male","right","90","67","25","3","2","{""Q0"":""22""}","","","","","","","",""
"5990.829999966081","","","survey-multi-select","3","25221","0.0-3.0","ztxxun","Tue Feb 16 2021 11:39:22 GMT+0100 (Central European Standard Time)","2021","2","16","11","39","22","sh19","22","male","right","90","67","25","3","2","{""Gender"":[""male""],""Hand"":[""right""]}","[0,1]","","","","","","",""
"7474.084999994375","<p>How Sad/Angry or Happy are you right now?</p>","","html-slider-response","4","32699","0.0-4.0","ztxxun","Tue Feb 16 2021 11:39:22 GMT+0100 (Central European Standard Time)","2021","2","16","11","39","22","sh19","22","male","right","90","67","25","3","2","","","50","90","","","","",""
"6743.080000043847","<p>How Tired/Sleepy/Distracted or Fresh/Awake/Alert are you right now?</p>","","html-slider-response","5","39443","0.0-5.0","ztxxun","Tue Feb 16 2021 11:39:22 GMT+0100 (Central European Standard Time)","2021","2","16","11","39","22","sh19","22","male","right","90","67","25","3","2","","","50","67","","","","",""
"6101.309999998193","<p>How Hungry or Satiated are you right now?</p>","","html-slider-response","6","45545","0.0-6.0","ztxxun","Tue Feb 16 2021 11:39:22 GMT+0100 (Central European Standard Time)","2021","2","16","11","39","22","sh19","22","male","right","90","67","25","3","2","","","50","25","","","","",""
"17769.48999997694","","","survey-multi-select","7","63324","0.0-7.0","ztxxun","Tue Feb 16 2021 11:39:22 GMT+0100 (Central European Standard Time)","2021","2","16","11","39","22","sh19","22","male","right","90","67","25","3","2","{""Sleep"":[""3""],""Eat"":[""2""]}","[0,1]","","","","","","",""
"6196.6600000159815","<p>In this experiment, a face and a word will appear in the center of the screen.</p><p>If the face is <strong>happy</strong>, press the letter <strong>H</strong> with <strong>right</strong> index finger.</p><p>If the face is <strong>fearful</strong>, press the letter <strong>F</strong> with <strong>left</strong> index finger.</p><p><strong>Ignore the written words</strong>. Respond as fast as possible while being correct. </p><div style='width: 900px;'><div style='float: left;'><img src='img/stimuli_stroop_happy.png'></img><p class='small'><strong>Press the H key for happy faces</strong></p></div><div class='float: right;'><img src='img/stimuli_stroop_fear.png'></img><p class='small'><strong>Press the F key for faces with fear</strong></p></div></div><p>If the screen turns blank, press <strong>SPACE</strong></p><p><strong>Press any key to begin.</strong></p>","32","html-keyboard-response","8","69524","0.0-8.0","ztxxun","Tue Feb 16 2021 11:39:22 GMT+0100 (Central European Standard Time)","2021","2","16","11","39","22","sh19","22","male","right","90","67","25","3","2","","","","","","","","",""
"null","<div style=""font-size:60px;"">+</div>","null","html-keyboard-response","9","72526","0.0-9.0-0.0","ztxxun","Tue Feb 16 2021 11:39:22 GMT+0100 (Central European Standard Time)","2021","2","16","11","39","22","sh19","22","male","right","90","67","25","3","2","","","","","fixation","","","",""
"512.6900000032037","img/image_stim_f.png","70","image-keyboard-response","10","73043","0.0-9.0-1.0","ztxxun","Tue Feb 16 2021 11:39:22 GMT+0100 (Central European Standard Time)","2021","2","16","11","39","22","sh19","22","male","right","90","67","25","3","2","","","","","test","fear","fear","f","true"
"null","<div style=""font-size:60px;"">+</div>","null","html-keyboard-response","11","73296","0.0-9.0-0.1","ztxxun","Tue Feb 16 2021 11:39:22 GMT+0100 (Central European Standard Time)","2021","2","16","11","39","22","sh19","22","male","right","90","67","25","3","2","","","","","fixation","","","",""
"794.6450000163168","img/image_stim_h_stroop.png","72","image-keyboard-response","12","74091","0.0-9.0-1.1","ztxxun","Tue Feb 16 2021 11:39:22 GMT+0100 (Central European Standard Time)","2021","2","16","11","39","22","sh19","22","male","right","90","67","25","3","2","","","","","test","happy","fear","h","true"
"null","<div style=""font-size:60px;"">+</div>","null","html-keyboard-response","13","75843","0.0-9.0-0.2","ztxxun","Tue Feb 16 2021 11:39:22 GMT+0100 (Central European Standard Time)","2021","2","16","11","39","22","sh19","22","male","right","90","67","25","3","2","","","","","fixation","","","",""
"439.26999997347593","img/image_stim_h.png","72","image-keyboard-response","14","76283","0.0-9.0-1.2","ztxxun","Tue Feb 16 2021 11:39:22 GMT+0100 (Central European Standard Time)","2021","2","16","11","39","22","sh19","22","male","right","90","67","25","3","2","","","","","test","happy","happy","h","true"
"null","<div style=""font-size:60px;"">+</div>","null","html-keyboard-response","15","77535","0.0-9.0-0.3","ztxxun","Tue Feb 16 2021 11:39:22 GMT+0100 (Central European Standard Time)","2021","2","16","11","39","22","sh19","22","male","right","90","67","25","3","2","","","","","fixation","","","",""
"899.3699999991804","img/image_stim_f_stroop.png","70","image-keyboard-response","16","78435","0.0-9.0-1.3","ztxxun","Tue Feb 16 2021 11:39:22 GMT+0100 (Central European Standard Time)","2021","2","16","11","39","22","sh19","22","male","right","90","67","25","3","2","","","","","test","fear","happy","f","true"
"null","<div style=""font-size:60px;"">+</div>","null","html-keyboard-response","17","79937","0.0-9.0-0.4","ztxxun","Tue Feb 16 2021 11:39:22 GMT+0100 (Central European Standard Time)","2021","2","16","11","39","22","sh19","22","male","right","90","67","25","3","2","","","","","fixation","","","",""
"633.5899999830872","img/image_stim_h_stroop.png","72","image-keyboard-response","18","80571","0.0-9.0-1.4","ztxxun","Tue Feb 16 2021 11:39:22 GMT+0100 (Central European Standard Time)","2021","2","16","11","39","22","sh19","22","male","right","90","67","25","3","2","","","","","test","happy","fear","h","true"
"null","<div style=""font-size:60px;"">+</div>","null","html-keyboard-response","19","81323","0.0-9.0-0.5","ztxxun","Tue Feb 16 2021 11:39:22 GMT+0100 (Central European Standard Time)","2021","2","16","11","39","22","sh19","22","male","right","90","67","25","3","2","","","","","fixation","","","",""
"679.7849999857135","img/image_stim_f.png","70","image-keyboard-response","20","82003","0.0-9.0-1.5","ztxxun","Tue Feb 16 2021 11:39:22 GMT+0100 (Central European Standard Time)","2021","2","16","11","39","22","sh19","22","male","right","90","67","25","3","2","","","","","test","fear","fear","f","true"
"null","<div style=""font-size:60px;"">+</div>","null","html-keyboard-response","21","84006","0.0-9.0-0.6","ztxxun","Tue Feb 16 2021 11:39:22 GMT+0100 (Central European Standard Time)","2021","2","16","11","39","22","sh19","22","male","right","90","67","25","3","2","","","","","fixation","","","",""
"388.5349999764003","img/image_stim_f_stroop.png","70","image-keyboard-response","22","84395","0.0-9.0-1.6","ztxxun","Tue Feb 16 2021 11:39:22 GMT+0100 (Central European Standard Time)","2021","2","16","11","39","22","sh19","22","male","right","90","67","25","3","2","","","","","test","fear","happy","f","true"
"null","<div style=""font-size:60px;"">+</div>","null","html-keyboard-response","23","84898","0.0-9.0-0.7","ztxxun","Tue Feb 16 2021 11:39:22 GMT+0100 (Central European Standard Time)","2021","2","16","11","39","22","sh19","22","male","right","90","67","25","3","2","","","","","fixation","","","",""
"720.1500000082888","img/image_stim_h.png","72","image-keyboard-response","24","85619","0.0-9.0-1.7","ztxxun","Tue Feb 16 2021 11:39:22 GMT+0100 (Central European Standard Time)","2021","2","16","11","39","22","sh19","22","male","right","90","67","25","3","2","","","","","test","happy","happy","h","true"
"null","<div style=""font-size:60px;"">+</div>","null","html-keyboard-response","25","87372","0.0-9.0-0.8","ztxxun","Tue Feb 16 2021 11:39:22 GMT+0100 (Central European Standard Time)","2021","2","16","11","39","22","sh19","22","male","right","90","67","25","3","2","","","","","fixation","","","",""
"502.82499997410923","img/image_stim_h.png","72","image-keyboard-response","26","87875","0.0-9.0-1.8","ztxxun","Tue Feb 16 2021 11:39:22 GMT+0100 (Central European Standard Time)","2021","2","16","11","39","22","sh19","22","male","right","90","67","25","3","2","","","","","test","happy","happy","h","true"
"null","<div style=""font-size:60px;"">+</div>","null","html-keyboard-response","27","88128","0.0-9.0-0.9","ztxxun","Tue Feb 16 2021 11:39:22 GMT+0100 (Central European Standard Time)","2021","2","16","11","39","22","sh19","22","male","right","90","67","25","3","2","","","","","fixation","","","",""
"762.8400000394322","img/image_stim_f_stroop.png","70","image-keyboard-response","28","88891","0.0-9.0-1.9","ztxxun","Tue Feb 16 2021 11:39:22 GMT+0100 (Central European Standard Time)","2021","2","16","11","39","22","sh19","22","male","right","90","67","25","3","2","","","","","test","fear","happy","f","true"
"null","<div style=""font-size:60px;"">+</div>","null","html-keyboard-response","29","89643","0.0-9.0-0.10","ztxxun","Tue Feb 16 2021 11:39:22 GMT+0100 (Central European Standard Time)","2021","2","16","11","39","22","sh19","22","male","right","90","67","25","3","2","","","","","fixation","","","",""
"439.52499999431893","img/image_stim_f.png","70","image-keyboard-response","30","90083","0.0-9.0-1.10","ztxxun","Tue Feb 16 2021 11:39:22 GMT+0100 (Central European Standard Time)","2021","2","16","11","39","22","sh19","22","male","right","90","67","25","3","2","","","","","test","fear","fear","f","true"
"null","<div style=""font-size:60px;"">+</div>","null","html-keyboard-response","31","90835","0.0-9.0-0.11","ztxxun","Tue Feb 16 2021 11:39:22 GMT+0100 (Central European Standard Time)","2021","2","16","11","39","22","sh19","22","male","right","90","67","25","3","2","","","","","fixation","","","",""
"383.8300000061281","img/image_stim_h_stroop.png","72","image-keyboard-response","32","91219","0.0-9.0-1.11","ztxxun","Tue Feb 16 2021 11:39:22 GMT+0100 (Central European Standard Time)","2021","2","16","11","39","22","sh19","22","male","right","90","67","25","3","2","","","","","test","happy","fear","h","true"
"null","<div style=""font-size:60px;"">+</div>","null","html-keyboard-response","33","92471","0.0-9.0-0.12","ztxxun","Tue Feb 16 2021 11:39:22 GMT+0100 (Central European Standard Time)","2021","2","16","11","39","22","sh19","22","male","right","90","67","25","3","2","","","","","fixation","","","",""
"419.8599999654107","img/image_stim_f.png","70","image-keyboard-response","34","92891","0.0-9.0-1.12","ztxxun","Tue Feb 16 2021 11:39:22 GMT+0100 (Central European Standard Time)","2021","2","16","11","39","22","sh19","22","male","right","90","67","25","3","2","","","","","test","fear","fear","f","true"
"null","<div style=""font-size:60px;"">+</div>","null","html-keyboard-response","35","94394","0.0-9.0-0.13","ztxxun","Tue Feb 16 2021 11:39:22 GMT+0100 (Central European Standard Time)","2021","2","16","11","39","22","sh19","22","male","right","90","67","25","3","2","","","","","fixation","","","",""
"488.8400000054389","img/image_stim_f_stroop.png","70","image-keyboard-response","36","94883","0.0-9.0-1.13","ztxxun","Tue Feb 16 2021 11:39:22 GMT+0100 (Central European Standard Time)","2021","2","16","11","39","22","sh19","22","male","right","90","67","25","3","2","","","","","test","fear","happy","f","true"
"null","<div style=""font-size:60px;"">+</div>","null","html-keyboard-response","37","96136","0.0-9.0-0.14","ztxxun","Tue Feb 16 2021 11:39:22 GMT+0100 (Central European Standard Time)","2021","2","16","11","39","22","sh19","22","male","right","90","67","25","3","2","","","","","fixation","","","",""
"426.8449999508448","img/image_stim_h.png","72","image-keyboard-response","38","96563","0.0-9.0-1.14","ztxxun","Tue Feb 16 2021 11:39:22 GMT+0100 (Central European Standard Time)","2021","2","16","11","39","22","sh19","22","male","right","90","67","25","3","2","","","","","test","happy","happy","h","true"
"null","<div style=""font-size:60px;"">+</div>","null","html-keyboard-response","39","96818","0.0-9.0-0.15","ztxxun","Tue Feb 16 2021 11:39:22 GMT+0100 (Central European Standard Time)","2021","2","16","11","39","22","sh19","22","male","right","90","67","25","3","2","","","","","fixation","","","",""
"456.32499997736886","img/image_stim_h_stroop.png","70","image-keyboard-response","40","97275","0.0-9.0-1.15","ztxxun","Tue Feb 16 2021 11:39:22 GMT+0100 (Central European Standard Time)","2021","2","16","11","39","22","sh19","22","male","right","90","67","25","3","2","","","","","test","happy","fear","h","false"
"null","<div style=""font-size:60px;"">+</div>","null","html-keyboard-response","41","98527","0.0-9.0-0.16","ztxxun","Tue Feb 16 2021 11:39:22 GMT+0100 (Central European Standard Time)","2021","2","16","11","39","22","sh19","22","male","right","90","67","25","3","2","","","","","fixation","","","",""
"475.4899999825284","img/image_stim_h.png","72","image-keyboard-response","42","99003","0.0-9.0-1.16","ztxxun","Tue Feb 16 2021 11:39:22 GMT+0100 (Central European Standard Time)","2021","2","16","11","39","22","sh19","22","male","right","90","67","25","3","2","","","","","test","happy","happy","h","true"
"null","<div style=""font-size:60px;"">+</div>","null","html-keyboard-response","43","100255","0.0-9.0-0.17","ztxxun","Tue Feb 16 2021 11:39:22 GMT+0100 (Central European Standard Time)","2021","2","16","11","39","22","sh19","22","male","right","90","67","25","3","2","","","","","fixation","","","",""
"515.4500000062399","img/image_stim_f.png","70","image-keyboard-response","44","100771","0.0-9.0-1.17","ztxxun","Tue Feb 16 2021 11:39:22 GMT+0100 (Central European Standard Time)","2021","2","16","11","39","22","sh19","22","male","right","90","67","25","3","2","","","","","test","fear","fear","f","true"
"null","<div style=""font-size:60px;"">+</div>","null","html-keyboard-response","45","101024","0.0-9.0-0.18","ztxxun","Tue Feb 16 2021 11:39:22 GMT+0100 (Central European Standard Time)","2021","2","16","11","39","22","sh19","22","male","right","90","67","25","3","2","","","","","fixation","","","",""
"994.6849999832921","img/image_stim_h_stroop.png","72","image-keyboard-response","46","102020","0.0-9.0-1.18","ztxxun","Tue Feb 16 2021 11:39:22 GMT+0100 (Central European Standard Time)","2021","2","16","11","39","22","sh19","22","male","right","90","67","25","3","2","","","","","test","happy","fear","h","true"
"null","<div style=""font-size:60px;"">+</div>","null","html-keyboard-response","47","102272","0.0-9.0-0.19","ztxxun","Tue Feb 16 2021 11:39:22 GMT+0100 (Central European Standard Time)","2021","2","16","11","39","22","sh19","22","male","right","90","67","25","3","2","","","","","fixation","","","",""
"938.4399999980815","img/image_stim_f_stroop.png","70","image-keyboard-response","48","103211","0.0-9.0-1.19","ztxxun","Tue Feb 16 2021 11:39:22 GMT+0100 (Central European Standard Time)","2021","2","16","11","39","22","sh19","22","male","right","90","67","25","3","2","","","","","test","fear","happy","f","true"
"null","<div style=""font-size:60px;"">+</div>","null","html-keyboard-response","49","103963","0.0-9.0-0.20","ztxxun","Tue Feb 16 2021 11:39:22 GMT+0100 (Central European Standard Time)","2021","2","16","11","39","22","sh19","22","male","right","90","67","25","3","2","","","","","fixation","","","",""
"559.4549999805167","img/image_stim_h_stroop.png","72","image-keyboard-response","50","104523","0.0-9.0-1.20","ztxxun","Tue Feb 16 2021 11:39:22 GMT+0100 (Central European Standard Time)","2021","2","16","11","39","22","sh19","22","male","right","90","67","25","3","2","","","","","test","happy","fear","h","true"
"null","<div style=""font-size:60px;"">+</div>","null","html-keyboard-response","51","105526","0.0-9.0-0.21","ztxxun","Tue Feb 16 2021 11:39:22 GMT+0100 (Central European Standard Time)","2021","2","16","11","39","22","sh19","22","male","right","90","67","25","3","2","","","","","fixation","","","",""
"388.80000001518056","img/image_stim_h.png","72","image-keyboard-response","52","105915","0.0-9.0-1.21","ztxxun","Tue Feb 16 2021 11:39:22 GMT+0100 (Central European Standard Time)","2021","2","16","11","39","22","sh19","22","male","right","90","67","25","3","2","","","","","test","happy","happy","h","true"
"null","<div style=""font-size:60px;"">+</div>","null","html-keyboard-response","53","106418","0.0-9.0-0.22","ztxxun","Tue Feb 16 2021 11:39:22 GMT+0100 (Central European Standard Time)","2021","2","16","11","39","22","sh19","22","male","right","90","67","25","3","2","","","","","fixation","","","",""
"616.199999989476","img/image_stim_f.png","70","image-keyboard-response","54","107035","0.0-9.0-1.22","ztxxun","Tue Feb 16 2021 11:39:22 GMT+0100 (Central European Standard Time)","2021","2","16","11","39","22","sh19","22","male","right","90","67","25","3","2","","","","","test","fear","fear","f","true"
"null","<div style=""font-size:60px;"">+</div>","null","html-keyboard-response","55","108538","0.0-9.0-0.23","ztxxun","Tue Feb 16 2021 11:39:22 GMT+0100 (Central European Standard Time)","2021","2","16","11","39","22","sh19","22","male","right","90","67","25","3","2","","","","","fixation","","","",""
"536.5200000233017","img/image_stim_f_stroop.png","70","image-keyboard-response","56","109075","0.0-9.0-1.23","ztxxun","Tue Feb 16 2021 11:39:22 GMT+0100 (Central European Standard Time)","2021","2","16","11","39","22","sh19","22","male","right","90","67","25","3","2","","","","","test","fear","happy","f","true"
"null","<div style=""font-size:60px;"">+</div>","null","html-keyboard-response","57","109328","0.0-9.0-0.24","ztxxun","Tue Feb 16 2021 11:39:22 GMT+0100 (Central European Standard Time)","2021","2","16","11","39","22","sh19","22","male","right","90","67","25","3","2","","","","","fixation","","","",""
"698.3849999960512","img/image_stim_f_stroop.png","70","image-keyboard-response","58","110027","0.0-9.0-1.24","ztxxun","Tue Feb 16 2021 11:39:22 GMT+0100 (Central European Standard Time)","2021","2","16","11","39","22","sh19","22","male","right","90","67","25","3","2","","","","","test","fear","happy","f","true"
"null","<div style=""font-size:60px;"">+</div>","null","html-keyboard-response","59","110779","0.0-9.0-0.25","ztxxun","Tue Feb 16 2021 11:39:22 GMT+0100 (Central European Standard Time)","2021","2","16","11","39","22","sh19","22","male","right","90","67","25","3","2","","","","","fixation","","","",""
"439.5350000122562","img/image_stim_f.png","70","image-keyboard-response","60","111219","0.0-9.0-1.25","ztxxun","Tue Feb 16 2021 11:39:22 GMT+0100 (Central European Standard Time)","2021","2","16","11","39","22","sh19","22","male","right","90","67","25","3","2","","","","","test","fear","fear","f","true"
"null","<div style=""font-size:60px;"">+</div>","null","html-keyboard-response","61","112972","0.0-9.0-0.26","ztxxun","Tue Feb 16 2021 11:39:22 GMT+0100 (Central European Standard Time)","2021","2","16","11","39","22","sh19","22","male","right","90","67","25","3","2","","","","","fixation","","","",""
"494.5399999851361","img/image_stim_h_stroop.png","72","image-keyboard-response","62","113468","0.0-9.0-1.26","ztxxun","Tue Feb 16 2021 11:39:22 GMT+0100 (Central European Standard Time)","2021","2","16","11","39","22","sh19","22","male","right","90","67","25","3","2","","","","","test","happy","fear","h","true"
"null","<div style=""font-size:60px;"">+</div>","null","html-keyboard-response","63","113978","0.0-9.0-0.27","ztxxun","Tue Feb 16 2021 11:39:22 GMT+0100 (Central European Standard Time)","2021","2","16","11","39","22","sh19","22","male","right","90","67","25","3","2","","","","","fixation","","","",""
"456.2199999927543","img/image_stim_h.png","72","image-keyboard-response","64","114435","0.0-9.0-1.27","ztxxun","Tue Feb 16 2021 11:39:22 GMT+0100 (Central European Standard Time)","2021","2","16","11","39","22","sh19","22","male","right","90","67","25","3","2","","","","","test","happy","happy","h","true"
"null","<div style=""font-size:60px;"">+</div>","null","html-keyboard-response","65","115688","0.0-9.0-0.28","ztxxun","Tue Feb 16 2021 11:39:22 GMT+0100 (Central European Standard Time)","2021","2","16","11","39","22","sh19","22","male","right","90","67","25","3","2","","","","","fixation","","","",""
"442.34000000869855","img/image_stim_f.png","70","image-keyboard-response","66","116131","0.0-9.0-1.28","ztxxun","Tue Feb 16 2021 11:39:22 GMT+0100 (Central European Standard Time)","2021","2","16","11","39","22","sh19","22","male","right","90","67","25","3","2","","","","","test","fear","fear","f","true"
"null","<div style=""font-size:60px;"">+</div>","null","html-keyboard-response","67","117134","0.0-9.0-0.29","ztxxun","Tue Feb 16 2021 11:39:22 GMT+0100 (Central European Standard Time)","2021","2","16","11","39","22","sh19","22","male","right","90","67","25","3","2","","","","","fixation","","","",""
"356.450000021141","img/image_stim_h.png","72","image-keyboard-response","68","117492","0.0-9.0-1.29","ztxxun","Tue Feb 16 2021 11:39:22 GMT+0100 (Central European Standard Time)","2021","2","16","11","39","22","sh19","22","male","right","90","67","25","3","2","","","","","test","happy","happy","h","true"
"null","<div style=""font-size:60px;"">+</div>","null","html-keyboard-response","69","119247","0.0-9.0-0.30","ztxxun","Tue Feb 16 2021 11:39:22 GMT+0100 (Central European Standard Time)","2021","2","16","11","39","22","sh19","22","male","right","90","67","25","3","2","","","","","fixation","","","",""
"620.8750000223517","img/image_stim_h_stroop.png","72","image-keyboard-response","70","119868","0.0-9.0-1.30","ztxxun","Tue Feb 16 2021 11:39:22 GMT+0100 (Central European Standard Time)","2021","2","16","11","39","22","sh19","22","male","right","90","67","25","3","2","","","","","test","happy","fear","h","true"
"null","<div style=""font-size:60px;"">+</div>","null","html-keyboard-response","71","121870","0.0-9.0-0.31","ztxxun","Tue Feb 16 2021 11:39:22 GMT+0100 (Central European Standard Time)","2021","2","16","11","39","22","sh19","22","male","right","90","67","25","3","2","","","","","fixation","","","",""
"525.0000000232831","img/image_stim_f_stroop.png","70","image-keyboard-response","72","122396","0.0-9.0-1.31","ztxxun","Tue Feb 16 2021 11:39:22 GMT+0100 (Central European Standard Time)","2021","2","16","11","39","22","sh19","22","male","right","90","67","25","3","2","","","","","test","fear","happy","f","true"
"null","<div style=""font-size:60px;"">+</div>","null","html-keyboard-response","73","124149","0.0-9.0-0.32","ztxxun","Tue Feb 16 2021 11:39:22 GMT+0100 (Central European Standard Time)","2021","2","16","11","39","22","sh19","22","male","right","90","67","25","3","2","","","","","fixation","","","",""
"430.3949999739416","img/image_stim_h.png","72","image-keyboard-response","74","124580","0.0-9.0-1.32","ztxxun","Tue Feb 16 2021 11:39:22 GMT+0100 (Central European Standard Time)","2021","2","16","11","39","22","sh19","22","male","right","90","67","25","3","2","","","","","test","happy","happy","h","true"
"null","<div style=""font-size:60px;"">+</div>","null","html-keyboard-response","75","124841","0.0-9.0-0.33","ztxxun","Tue Feb 16 2021 11:39:22 GMT+0100 (Central European Standard Time)","2021","2","16","11","39","22","sh19","22","male","right","90","67","25","3","2","","","","","fixation","","","",""
"361.99499998474494","img/image_stim_h_stroop.png","72","image-keyboard-response","76","125204","0.0-9.0-1.33","ztxxun","Tue Feb 16 2021 11:39:22 GMT+0100 (Central European Standard Time)","2021","2","16","11","39","22","sh19","22","male","right","90","67","25","3","2","","","","","test","happy","fear","h","true"
"null","<div style=""font-size:60px;"">+</div>","null","html-keyboard-response","77","125708","0.0-9.0-0.34","ztxxun","Tue Feb 16 2021 11:39:22 GMT+0100 (Central European Standard Time)","2021","2","16","11","39","22","sh19","22","male","right","90","67","25","3","2","","","","","fixation","","","",""
"543.4949999907985","img/image_stim_f_stroop.png","70","image-keyboard-response","78","126252","0.0-9.0-1.34","ztxxun","Tue Feb 16 2021 11:39:22 GMT+0100 (Central European Standard Time)","2021","2","16","11","39","22","sh19","22","male","right","90","67","25","3","2","","","","","test","fear","happy","f","true"
"null","<div style=""font-size:60px;"">+</div>","null","html-keyboard-response","79","126765","0.0-9.0-0.35","ztxxun","Tue Feb 16 2021 11:39:22 GMT+0100 (Central European Standard Time)","2021","2","16","11","39","22","sh19","22","male","right","90","67","25","3","2","","","","","fixation","","","",""
"470.21500003756955","img/image_stim_f.png","70","image-keyboard-response","80","127236","0.0-9.0-1.35","ztxxun","Tue Feb 16 2021 11:39:22 GMT+0100 (Central European Standard Time)","2021","2","16","11","39","22","sh19","22","male","right","90","67","25","3","2","","","","","test","fear","fear","f","true"
