"rt","stimulus","key_press","trial_type","trial_index","time_elapsed","internal_node_id","exp_id","Time","year","month","date","hour","minute","seconds","id","age","Gender","Handedness","mood","fresh","hunger","H_since_Sleep","H_since_Eat","responses","question_order","slider_start","response","test_part","face","word","correct_response","correct"
"115466","<p>Welcome to this experiment on daily rhythms and cognition.</p><p>First you will be asked some questions about yourself.</p><p>Then a short experiment will measure your response time.</p><p>Take the test at different times of the day/night.</p><p>The test is anonymous, but comparing your data across time is important.</p><p>Therefore, please make up and remember a personal ID (two letters+ two numbers).</p><p>Use this ID whenever taking the test.</p><p><strong>Press any key to begin.</strong></p>","32","html-keyboard-response","0","115474","0.0-0.0","asgk6u","Thu Feb 18 2021 15:43:04 GMT+0100 (CET)","2021","2","18","15","43","4","TY99","21","female","right","36","28","81","7","0","","","","","","","","",""
"15503.00000000003","","","survey-text","1","131036","0.0-1.0","asgk6u","Thu Feb 18 2021 15:43:04 GMT+0100 (CET)","2021","2","18","15","43","4","TY99","21","female","right","36","28","81","7","0","{""Q0"":""TY99""}","","","","","","","",""
"3208.999999999971","","","survey-text","2","134251","0.0-2.0","asgk6u","Thu Feb 18 2021 15:43:04 GMT+0100 (CET)","2021","2","18","15","43","4","TY99","21","female","right","36","28","81","7","0","{""Q0"":""21""}","","","","","","","",""
"5372.999999999971","","","survey-multi-select","3","139630","0.0-3.0","asgk6u","Thu Feb 18 2021 15:43:04 GMT+0100 (CET)","2021","2","18","15","43","4","TY99","21","female","right","36","28","81","7","0","{""Gender"":[""female""],""Hand"":[""right""]}","[0,1]","","","","","","",""
"5432","<p>How Sad/Angry or Happy are you right now?</p>","","html-slider-response","4","145066","0.0-4.0","asgk6u","Thu Feb 18 2021 15:43:04 GMT+0100 (CET)","2021","2","18","15","43","4","TY99","21","female","right","36","28","81","7","0","","","50","36","","","","",""
"7498","<p>How Tired/Sleepy/Distracted or Fresh/Awake/Alert are you right now?</p>","","html-slider-response","5","152566","0.0-5.0","asgk6u","Thu Feb 18 2021 15:43:04 GMT+0100 (CET)","2021","2","18","15","43","4","TY99","21","female","right","36","28","81","7","0","","","50","28","","","","",""
"5059","<p>How Hungry or Satiated are you right now?</p>","","html-slider-response","6","157626","0.0-6.0","asgk6u","Thu Feb 18 2021 15:43:04 GMT+0100 (CET)","2021","2","18","15","43","4","TY99","21","female","right","36","28","81","7","0","","","50","81","","","","",""
"19593","","","survey-multi-select","7","177233","0.0-7.0","asgk6u","Thu Feb 18 2021 15:43:04 GMT+0100 (CET)","2021","2","18","15","43","4","TY99","21","female","right","36","28","81","7","0","{""Sleep"":[""7""],""Eat"":[""0""]}","[0,1]","","","","","","",""
"22402","<p>In this experiment, a face and a word will appear in the center of the screen.</p><p>If the face is <strong>happy</strong>, press the letter <strong>H</strong> with <strong>right</strong> index finger.</p><p>If the face is <strong>fearful</strong>, press the letter <strong>F</strong> with <strong>left</strong> index finger.</p><p><strong>Ignore the written words</strong>. Respond as fast as possible while being correct. </p><div style='width: 900px;'><div style='float: left;'><img src='img/stimuli_stroop_happy.png'></img><p class='small'><strong>Press the H key for happy faces</strong></p></div><div class='float: right;'><img src='img/stimuli_stroop_fear.png'></img><p class='small'><strong>Press the F key for faces with fear</strong></p></div></div><p>If the screen turns blank, press <strong>SPACE</strong></p><p><strong>Press any key to begin.</strong></p>","32","html-keyboard-response","8","199638","0.0-8.0","asgk6u","Thu Feb 18 2021 15:43:04 GMT+0100 (CET)","2021","2","18","15","43","4","TY99","21","female","right","36","28","81","7","0","","","","","","","","",""
"null","<div style=""font-size:60px;"">+</div>","null","html-keyboard-response","9","203392","0.0-9.0-0.0","asgk6u","Thu Feb 18 2021 15:43:04 GMT+0100 (CET)","2021","2","18","15","43","4","TY99","21","female","right","36","28","81","7","0","","","","","fixation","","","",""
"1643","img/image_stim_h_stroop.png","72","image-keyboard-response","10","205048","0.0-9.0-1.0","asgk6u","Thu Feb 18 2021 15:43:04 GMT+0100 (CET)","2021","2","18","15","43","4","TY99","21","female","right","36","28","81","7","0","","","","","test","happy","fear","h","true"
"null","<div style=""font-size:60px;"">+</div>","null","html-keyboard-response","11","205303","0.0-9.0-0.1","asgk6u","Thu Feb 18 2021 15:43:04 GMT+0100 (CET)","2021","2","18","15","43","4","TY99","21","female","right","36","28","81","7","0","","","","","fixation","","","",""
"983.9999999999709","img/image_stim_f_stroop.png","72","image-keyboard-response","12","206291","0.0-9.0-1.1","asgk6u","Thu Feb 18 2021 15:43:04 GMT+0100 (CET)","2021","2","18","15","43","4","TY99","21","female","right","36","28","81","7","0","","","","","test","fear","happy","f","false"
"null","<div style=""font-size:60px;"">+</div>","null","html-keyboard-response","13","208295","0.0-9.0-0.2","asgk6u","Thu Feb 18 2021 15:43:04 GMT+0100 (CET)","2021","2","18","15","43","4","TY99","21","female","right","36","28","81","7","0","","","","","fixation","","","",""
"1135","img/image_stim_f.png","70","image-keyboard-response","14","209432","0.0-9.0-1.2","asgk6u","Thu Feb 18 2021 15:43:04 GMT+0100 (CET)","2021","2","18","15","43","4","TY99","21","female","right","36","28","81","7","0","","","","","test","fear","fear","f","true"
"null","<div style=""font-size:60px;"">+</div>","null","html-keyboard-response","15","209685","0.0-9.0-0.3","asgk6u","Thu Feb 18 2021 15:43:04 GMT+0100 (CET)","2021","2","18","15","43","4","TY99","21","female","right","36","28","81","7","0","","","","","fixation","","","",""
"840.9999999999709","img/image_stim_h.png","72","image-keyboard-response","16","210529","0.0-9.0-1.3","asgk6u","Thu Feb 18 2021 15:43:04 GMT+0100 (CET)","2021","2","18","15","43","4","TY99","21","female","right","36","28","81","7","0","","","","","test","happy","happy","h","true"
"null","<div style=""font-size:60px;"">+</div>","null","html-keyboard-response","17","211781","0.0-9.0-0.4","asgk6u","Thu Feb 18 2021 15:43:04 GMT+0100 (CET)","2021","2","18","15","43","4","TY99","21","female","right","36","28","81","7","0","","","","","fixation","","","",""
"760","img/image_stim_h_stroop.png","72","image-keyboard-response","18","212544","0.0-9.0-1.4","asgk6u","Thu Feb 18 2021 15:43:04 GMT+0100 (CET)","2021","2","18","15","43","4","TY99","21","female","right","36","28","81","7","0","","","","","test","happy","fear","h","true"
"null","<div style=""font-size:60px;"">+</div>","null","html-keyboard-response","19","213797","0.0-9.0-0.5","asgk6u","Thu Feb 18 2021 15:43:04 GMT+0100 (CET)","2021","2","18","15","43","4","TY99","21","female","right","36","28","81","7","0","","","","","fixation","","","",""
"680","img/image_stim_f_stroop.png","70","image-keyboard-response","20","214479","0.0-9.0-1.5","asgk6u","Thu Feb 18 2021 15:43:04 GMT+0100 (CET)","2021","2","18","15","43","4","TY99","21","female","right","36","28","81","7","0","","","","","test","fear","happy","f","true"
"null","<div style=""font-size:60px;"">+</div>","null","html-keyboard-response","21","216482","0.0-9.0-0.6","asgk6u","Thu Feb 18 2021 15:43:04 GMT+0100 (CET)","2021","2","18","15","43","4","TY99","21","female","right","36","28","81","7","0","","","","","fixation","","","",""
"549.0000000000291","img/image_stim_f.png","70","image-keyboard-response","22","217033","0.0-9.0-1.6","asgk6u","Thu Feb 18 2021 15:43:04 GMT+0100 (CET)","2021","2","18","15","43","4","TY99","21","female","right","36","28","81","7","0","","","","","test","fear","fear","f","true"
"null","<div style=""font-size:60px;"">+</div>","null","html-keyboard-response","23","218535","0.0-9.0-0.7","asgk6u","Thu Feb 18 2021 15:43:04 GMT+0100 (CET)","2021","2","18","15","43","4","TY99","21","female","right","36","28","81","7","0","","","","","fixation","","","",""
"451","img/image_stim_h.png","72","image-keyboard-response","24","218989","0.0-9.0-1.7","asgk6u","Thu Feb 18 2021 15:43:04 GMT+0100 (CET)","2021","2","18","15","43","4","TY99","21","female","right","36","28","81","7","0","","","","","test","happy","happy","h","true"
"null","<div style=""font-size:60px;"">+</div>","null","html-keyboard-response","25","220741","0.0-9.0-0.8","asgk6u","Thu Feb 18 2021 15:43:04 GMT+0100 (CET)","2021","2","18","15","43","4","TY99","21","female","right","36","28","81","7","0","","","","","fixation","","","",""
"471","img/image_stim_h.png","72","image-keyboard-response","26","221214","0.0-9.0-1.8","asgk6u","Thu Feb 18 2021 15:43:04 GMT+0100 (CET)","2021","2","18","15","43","4","TY99","21","female","right","36","28","81","7","0","","","","","test","happy","happy","h","true"
"null","<div style=""font-size:60px;"">+</div>","null","html-keyboard-response","27","221467","0.0-9.0-0.9","asgk6u","Thu Feb 18 2021 15:43:04 GMT+0100 (CET)","2021","2","18","15","43","4","TY99","21","female","right","36","28","81","7","0","","","","","fixation","","","",""
"613","img/image_stim_f_stroop.png","70","image-keyboard-response","28","222081","0.0-9.0-1.9","asgk6u","Thu Feb 18 2021 15:43:04 GMT+0100 (CET)","2021","2","18","15","43","4","TY99","21","female","right","36","28","81","7","0","","","","","test","fear","happy","f","true"
"null","<div style=""font-size:60px;"">+</div>","null","html-keyboard-response","29","222834","0.0-9.0-0.10","asgk6u","Thu Feb 18 2021 15:43:04 GMT+0100 (CET)","2021","2","18","15","43","4","TY99","21","female","right","36","28","81","7","0","","","","","fixation","","","",""
"494","img/image_stim_f.png","70","image-keyboard-response","30","223330","0.0-9.0-1.10","asgk6u","Thu Feb 18 2021 15:43:04 GMT+0100 (CET)","2021","2","18","15","43","4","TY99","21","female","right","36","28","81","7","0","","","","","test","fear","fear","f","true"
"null","<div style=""font-size:60px;"">+</div>","null","html-keyboard-response","31","224583","0.0-9.0-0.11","asgk6u","Thu Feb 18 2021 15:43:04 GMT+0100 (CET)","2021","2","18","15","43","4","TY99","21","female","right","36","28","81","7","0","","","","","fixation","","","",""
"1074","img/image_stim_h_stroop.png","72","image-keyboard-response","32","225659","0.0-9.0-1.11","asgk6u","Thu Feb 18 2021 15:43:04 GMT+0100 (CET)","2021","2","18","15","43","4","TY99","21","female","right","36","28","81","7","0","","","","","test","happy","fear","h","true"
"null","<div style=""font-size:60px;"">+</div>","null","html-keyboard-response","33","226412","0.0-9.0-0.12","asgk6u","Thu Feb 18 2021 15:43:04 GMT+0100 (CET)","2021","2","18","15","43","4","TY99","21","female","right","36","28","81","7","0","","","","","fixation","","","",""
"625","img/image_stim_h.png","72","image-keyboard-response","34","227039","0.0-9.0-1.12","asgk6u","Thu Feb 18 2021 15:43:04 GMT+0100 (CET)","2021","2","18","15","43","4","TY99","21","female","right","36","28","81","7","0","","","","","test","happy","happy","h","true"
"null","<div style=""font-size:60px;"">+</div>","null","html-keyboard-response","35","227542","0.0-9.0-0.13","asgk6u","Thu Feb 18 2021 15:43:04 GMT+0100 (CET)","2021","2","18","15","43","4","TY99","21","female","right","36","28","81","7","0","","","","","fixation","","","",""
"610","img/image_stim_h_stroop.png","70","image-keyboard-response","36","228154","0.0-9.0-1.13","asgk6u","Thu Feb 18 2021 15:43:04 GMT+0100 (CET)","2021","2","18","15","43","4","TY99","21","female","right","36","28","81","7","0","","","","","test","happy","fear","h","false"
"null","<div style=""font-size:60px;"">+</div>","null","html-keyboard-response","37","228407","0.0-9.0-0.14","asgk6u","Thu Feb 18 2021 15:43:04 GMT+0100 (CET)","2021","2","18","15","43","4","TY99","21","female","right","36","28","81","7","0","","","","","fixation","","","",""
"830.9999999999709","img/image_stim_f.png","70","image-keyboard-response","38","229239","0.0-9.0-1.14","asgk6u","Thu Feb 18 2021 15:43:04 GMT+0100 (CET)","2021","2","18","15","43","4","TY99","21","female","right","36","28","81","7","0","","","","","test","fear","fear","f","true"
"null","<div style=""font-size:60px;"">+</div>","null","html-keyboard-response","39","229742","0.0-9.0-0.15","asgk6u","Thu Feb 18 2021 15:43:04 GMT+0100 (CET)","2021","2","18","15","43","4","TY99","21","female","right","36","28","81","7","0","","","","","fixation","","","",""
"664.0000000000291","img/image_stim_f_stroop.png","70","image-keyboard-response","40","230408","0.0-9.0-1.15","asgk6u","Thu Feb 18 2021 15:43:04 GMT+0100 (CET)","2021","2","18","15","43","4","TY99","21","female","right","36","28","81","7","0","","","","","test","fear","happy","f","true"
"null","<div style=""font-size:60px;"">+</div>","null","html-keyboard-response","41","231911","0.0-9.0-0.16","asgk6u","Thu Feb 18 2021 15:43:04 GMT+0100 (CET)","2021","2","18","15","43","4","TY99","21","female","right","36","28","81","7","0","","","","","fixation","","","",""
"1052","img/image_stim_f_stroop.png","70","image-keyboard-response","42","232964","0.0-9.0-1.16","asgk6u","Thu Feb 18 2021 15:43:04 GMT+0100 (CET)","2021","2","18","15","43","4","TY99","21","female","right","36","28","81","7","0","","","","","test","fear","happy","f","true"
"null","<div style=""font-size:60px;"">+</div>","null","html-keyboard-response","43","234967","0.0-9.0-0.17","asgk6u","Thu Feb 18 2021 15:43:04 GMT+0100 (CET)","2021","2","18","15","43","4","TY99","21","female","right","36","28","81","7","0","","","","","fixation","","","",""
"842","img/image_stim_h_stroop.png","72","image-keyboard-response","44","235812","0.0-9.0-1.17","asgk6u","Thu Feb 18 2021 15:43:04 GMT+0100 (CET)","2021","2","18","15","43","4","TY99","21","female","right","36","28","81","7","0","","","","","test","happy","fear","h","true"
"null","<div style=""font-size:60px;"">+</div>","null","html-keyboard-response","45","237064","0.0-9.0-0.18","asgk6u","Thu Feb 18 2021 15:43:04 GMT+0100 (CET)","2021","2","18","15","43","4","TY99","21","female","right","36","28","81","7","0","","","","","fixation","","","",""
"688","img/image_stim_f.png","70","image-keyboard-response","46","237754","0.0-9.0-1.18","asgk6u","Thu Feb 18 2021 15:43:04 GMT+0100 (CET)","2021","2","18","15","43","4","TY99","21","female","right","36","28","81","7","0","","","","","test","fear","fear","f","true"
"null","<div style=""font-size:60px;"">+</div>","null","html-keyboard-response","47","239007","0.0-9.0-0.19","asgk6u","Thu Feb 18 2021 15:43:04 GMT+0100 (CET)","2021","2","18","15","43","4","TY99","21","female","right","36","28","81","7","0","","","","","fixation","","","",""
"679","img/image_stim_h.png","72","image-keyboard-response","48","239688","0.0-9.0-1.19","asgk6u","Thu Feb 18 2021 15:43:04 GMT+0100 (CET)","2021","2","18","15","43","4","TY99","21","female","right","36","28","81","7","0","","","","","test","happy","happy","h","true"
"null","<div style=""font-size:60px;"">+</div>","null","html-keyboard-response","49","241441","0.0-9.0-0.20","asgk6u","Thu Feb 18 2021 15:43:04 GMT+0100 (CET)","2021","2","18","15","43","4","TY99","21","female","right","36","28","81","7","0","","","","","fixation","","","",""
"748","img/image_stim_f_stroop.png","70","image-keyboard-response","50","242190","0.0-9.0-1.20","asgk6u","Thu Feb 18 2021 15:43:04 GMT+0100 (CET)","2021","2","18","15","43","4","TY99","21","female","right","36","28","81","7","0","","","","","test","fear","happy","f","true"
"null","<div style=""font-size:60px;"">+</div>","null","html-keyboard-response","51","242444","0.0-9.0-0.21","asgk6u","Thu Feb 18 2021 15:43:04 GMT+0100 (CET)","2021","2","18","15","43","4","TY99","21","female","right","36","28","81","7","0","","","","","fixation","","","",""
"944","img/image_stim_h_stroop.png","72","image-keyboard-response","52","243389","0.0-9.0-1.21","asgk6u","Thu Feb 18 2021 15:43:04 GMT+0100 (CET)","2021","2","18","15","43","4","TY99","21","female","right","36","28","81","7","0","","","","","test","happy","fear","h","true"
"null","<div style=""font-size:60px;"">+</div>","null","html-keyboard-response","53","243643","0.0-9.0-0.22","asgk6u","Thu Feb 18 2021 15:43:04 GMT+0100 (CET)","2021","2","18","15","43","4","TY99","21","female","right","36","28","81","7","0","","","","","fixation","","","",""
"732","img/image_stim_f.png","70","image-keyboard-response","54","244377","0.0-9.0-1.22","asgk6u","Thu Feb 18 2021 15:43:04 GMT+0100 (CET)","2021","2","18","15","43","4","TY99","21","female","right","36","28","81","7","0","","","","","test","fear","fear","f","true"
"null","<div style=""font-size:60px;"">+</div>","null","html-keyboard-response","55","246379","0.0-9.0-0.23","asgk6u","Thu Feb 18 2021 15:43:04 GMT+0100 (CET)","2021","2","18","15","43","4","TY99","21","female","right","36","28","81","7","0","","","","","fixation","","","",""
"616","img/image_stim_h.png","72","image-keyboard-response","56","246997","0.0-9.0-1.23","asgk6u","Thu Feb 18 2021 15:43:04 GMT+0100 (CET)","2021","2","18","15","43","4","TY99","21","female","right","36","28","81","7","0","","","","","test","happy","happy","h","true"
"null","<div style=""font-size:60px;"">+</div>","null","html-keyboard-response","57","247249","0.0-9.0-0.24","asgk6u","Thu Feb 18 2021 15:43:04 GMT+0100 (CET)","2021","2","18","15","43","4","TY99","21","female","right","36","28","81","7","0","","","","","fixation","","","",""
"571","img/image_stim_f.png","70","image-keyboard-response","58","247821","0.0-9.0-1.24","asgk6u","Thu Feb 18 2021 15:43:04 GMT+0100 (CET)","2021","2","18","15","43","4","TY99","21","female","right","36","28","81","7","0","","","","","test","fear","fear","f","true"
"null","<div style=""font-size:60px;"">+</div>","null","html-keyboard-response","59","248074","0.0-9.0-0.25","asgk6u","Thu Feb 18 2021 15:43:04 GMT+0100 (CET)","2021","2","18","15","43","4","TY99","21","female","right","36","28","81","7","0","","","","","fixation","","","",""
"691.9999999999709","img/image_stim_h_stroop.png","72","image-keyboard-response","60","248768","0.0-9.0-1.25","asgk6u","Thu Feb 18 2021 15:43:04 GMT+0100 (CET)","2021","2","18","15","43","4","TY99","21","female","right","36","28","81","7","0","","","","","test","happy","fear","h","true"
"null","<div style=""font-size:60px;"">+</div>","null","html-keyboard-response","61","249521","0.0-9.0-0.26","asgk6u","Thu Feb 18 2021 15:43:04 GMT+0100 (CET)","2021","2","18","15","43","4","TY99","21","female","right","36","28","81","7","0","","","","","fixation","","","",""
"725","img/image_stim_f_stroop.png","70","image-keyboard-response","62","250247","0.0-9.0-1.26","asgk6u","Thu Feb 18 2021 15:43:04 GMT+0100 (CET)","2021","2","18","15","43","4","TY99","21","female","right","36","28","81","7","0","","","","","test","fear","happy","f","true"
"null","<div style=""font-size:60px;"">+</div>","null","html-keyboard-response","63","251000","0.0-9.0-0.27","asgk6u","Thu Feb 18 2021 15:43:04 GMT+0100 (CET)","2021","2","18","15","43","4","TY99","21","female","right","36","28","81","7","0","","","","","fixation","","","",""
"444","img/image_stim_h.png","72","image-keyboard-response","64","251446","0.0-9.0-1.27","asgk6u","Thu Feb 18 2021 15:43:04 GMT+0100 (CET)","2021","2","18","15","43","4","TY99","21","female","right","36","28","81","7","0","","","","","test","happy","happy","h","true"
"null","<div style=""font-size:60px;"">+</div>","null","html-keyboard-response","65","253449","0.0-9.0-0.28","asgk6u","Thu Feb 18 2021 15:43:04 GMT+0100 (CET)","2021","2","18","15","43","4","TY99","21","female","right","36","28","81","7","0","","","","","fixation","","","",""
"518.9999999999709","img/image_stim_h.png","72","image-keyboard-response","66","253969","0.0-9.0-1.28","asgk6u","Thu Feb 18 2021 15:43:04 GMT+0100 (CET)","2021","2","18","15","43","4","TY99","21","female","right","36","28","81","7","0","","","","","test","happy","happy","h","true"
"null","<div style=""font-size:60px;"">+</div>","null","html-keyboard-response","67","255724","0.0-9.0-0.29","asgk6u","Thu Feb 18 2021 15:43:04 GMT+0100 (CET)","2021","2","18","15","43","4","TY99","21","female","right","36","28","81","7","0","","","","","fixation","","","",""
"570.9999999999709","img/image_stim_f_stroop.png","70","image-keyboard-response","68","256297","0.0-9.0-1.29","asgk6u","Thu Feb 18 2021 15:43:04 GMT+0100 (CET)","2021","2","18","15","43","4","TY99","21","female","right","36","28","81","7","0","","","","","test","fear","happy","f","true"
"null","<div style=""font-size:60px;"">+</div>","null","html-keyboard-response","69","258051","0.0-9.0-0.30","asgk6u","Thu Feb 18 2021 15:43:04 GMT+0100 (CET)","2021","2","18","15","43","4","TY99","21","female","right","36","28","81","7","0","","","","","fixation","","","",""
"648","img/image_stim_h_stroop.png","72","image-keyboard-response","70","258700","0.0-9.0-1.30","asgk6u","Thu Feb 18 2021 15:43:04 GMT+0100 (CET)","2021","2","18","15","43","4","TY99","21","female","right","36","28","81","7","0","","","","","test","happy","fear","h","true"
"null","<div style=""font-size:60px;"">+</div>","null","html-keyboard-response","71","260704","0.0-9.0-0.31","asgk6u","Thu Feb 18 2021 15:43:04 GMT+0100 (CET)","2021","2","18","15","43","4","TY99","21","female","right","36","28","81","7","0","","","","","fixation","","","",""
"638.0000000000582","img/image_stim_f.png","70","image-keyboard-response","72","261344","0.0-9.0-1.31","asgk6u","Thu Feb 18 2021 15:43:04 GMT+0100 (CET)","2021","2","18","15","43","4","TY99","21","female","right","36","28","81","7","0","","","","","test","fear","fear","f","true"
"null","<div style=""font-size:60px;"">+</div>","null","html-keyboard-response","73","262347","0.0-9.0-0.32","asgk6u","Thu Feb 18 2021 15:43:04 GMT+0100 (CET)","2021","2","18","15","43","4","TY99","21","female","right","36","28","81","7","0","","","","","fixation","","","",""
"738","img/image_stim_f_stroop.png","70","image-keyboard-response","74","263088","0.0-9.0-1.32","asgk6u","Thu Feb 18 2021 15:43:04 GMT+0100 (CET)","2021","2","18","15","43","4","TY99","21","female","right","36","28","81","7","0","","","","","test","fear","happy","f","true"
"null","<div style=""font-size:60px;"">+</div>","null","html-keyboard-response","75","263842","0.0-9.0-0.33","asgk6u","Thu Feb 18 2021 15:43:04 GMT+0100 (CET)","2021","2","18","15","43","4","TY99","21","female","right","36","28","81","7","0","","","","","fixation","","","",""
"599.0000000000582","img/image_stim_f.png","70","image-keyboard-response","76","264442","0.0-9.0-1.33","asgk6u","Thu Feb 18 2021 15:43:04 GMT+0100 (CET)","2021","2","18","15","43","4","TY99","21","female","right","36","28","81","7","0","","","","","test","fear","fear","f","true"
"null","<div style=""font-size:60px;"">+</div>","null","html-keyboard-response","77","265696","0.0-9.0-0.34","asgk6u","Thu Feb 18 2021 15:43:04 GMT+0100 (CET)","2021","2","18","15","43","4","TY99","21","female","right","36","28","81","7","0","","","","","fixation","","","",""
"586","img/image_stim_h.png","72","image-keyboard-response","78","266284","0.0-9.0-1.34","asgk6u","Thu Feb 18 2021 15:43:04 GMT+0100 (CET)","2021","2","18","15","43","4","TY99","21","female","right","36","28","81","7","0","","","","","test","happy","happy","h","true"
"null","<div style=""font-size:60px;"">+</div>","null","html-keyboard-response","79","267537","0.0-9.0-0.35","asgk6u","Thu Feb 18 2021 15:43:04 GMT+0100 (CET)","2021","2","18","15","43","4","TY99","21","female","right","36","28","81","7","0","","","","","fixation","","","",""
"607","img/image_stim_h_stroop.png","72","image-keyboard-response","80","268146","0.0-9.0-1.35","asgk6u","Thu Feb 18 2021 15:43:04 GMT+0100 (CET)","2021","2","18","15","43","4","TY99","21","female","right","36","28","81","7","0","","","","","test","happy","fear","h","true"
