"rt","stimulus","key_press","trial_type","trial_index","time_elapsed","internal_node_id","exp_id","Time","year","month","date","hour","minute","seconds","id","age","Gender","Handedness","mood","fresh","hunger","H_since_Sleep","H_since_Eat","responses","question_order","slider_start","response","test_part","face","word","correct_response","correct"
"1635.9999999999982","<p>Welcome to this experiment on daily rhythms and cognition.</p><p>First you will be asked some questions about yourself.</p><p>Then a short experiment will measure your response time.</p><p>Take the test at different times of the day/night.</p><p>The test is anonymous, but comparing your data across time is important.</p><p>Therefore, please make up and remember a personal ID (two letters+ two numbers).</p><p>Use this ID whenever taking the test.</p><p><strong>Press any key to begin.</strong></p>","32","html-keyboard-response","0","1638","0.0-0.0","umt3qb","Tue Feb 09 2021 10:02:55 GMT+0100 (CET)","2021","2","9","10","2","55","ib72","21","female","right","74","88","76","3","1","","","","","","","","",""
"8167.000000000004","","","survey-text","1","9827","0.0-1.0","umt3qb","Tue Feb 09 2021 10:02:55 GMT+0100 (CET)","2021","2","9","10","2","55","ib72","21","female","right","74","88","76","3","1","{""Q0"":""ib72""}","","","","","","","",""
"2775","","","survey-text","2","12606","0.0-2.0","umt3qb","Tue Feb 09 2021 10:02:55 GMT+0100 (CET)","2021","2","9","10","2","55","ib72","21","female","right","74","88","76","3","1","{""Q0"":""21""}","","","","","","","",""
"5154.999999999996","","","survey-multi-select","3","17763","0.0-3.0","umt3qb","Tue Feb 09 2021 10:02:55 GMT+0100 (CET)","2021","2","9","10","2","55","ib72","21","female","right","74","88","76","3","1","{""Gender"":[""female""],""Hand"":[""right""]}","[0,1]","","","","","","",""
"5839","<p>How Sad/Angry or Happy are you right now?</p>","","html-slider-response","4","23603","0.0-4.0","umt3qb","Tue Feb 09 2021 10:02:55 GMT+0100 (CET)","2021","2","9","10","2","55","ib72","21","female","right","74","88","76","3","1","","","50","74","","","","",""
"5912","<p>How Tired/Sleepy/Distracted or Fresh/Awake/Alert are you right now?</p>","","html-slider-response","5","29517","0.0-5.0","umt3qb","Tue Feb 09 2021 10:02:55 GMT+0100 (CET)","2021","2","9","10","2","55","ib72","21","female","right","74","88","76","3","1","","","50","88","","","","",""
"3879","<p>How Hungry or Satiated are you right now?</p>","","html-slider-response","6","33397","0.0-6.0","umt3qb","Tue Feb 09 2021 10:02:55 GMT+0100 (CET)","2021","2","9","10","2","55","ib72","21","female","right","74","88","76","3","1","","","50","76","","","","",""
"14716.999999999993","","","survey-multi-select","7","48125","0.0-7.0","umt3qb","Tue Feb 09 2021 10:02:55 GMT+0100 (CET)","2021","2","9","10","2","55","ib72","21","female","right","74","88","76","3","1","{""Sleep"":[""3""],""Eat"":[""1""]}","[0,1]","","","","","","",""
"30941","<p>In this experiment, a face and a word will appear in the center of the screen.</p><p>If the face is <strong>happy</strong>, press the letter <strong>H</strong> with <strong>right</strong> index finger.</p><p>If the face is <strong>fearful</strong>, press the letter <strong>F</strong> with <strong>left</strong> index finger.</p><p><strong>Ignore the written words</strong>. Respond as fast as possible while being correct. </p><div style='width: 900px;'><div style='float: left;'><img src='img/stimuli_stroop_happy.png'></img><p class='small'><strong>Press the H key for happy faces</strong></p></div><div class='float: right;'><img src='img/stimuli_stroop_fear.png'></img><p class='small'><strong>Press the F key for faces with fear</strong></p></div></div><p>If the screen turns blank, press <strong>SPACE</strong></p><p><strong>Press any key to begin.</strong></p>","32","html-keyboard-response","8","79067","0.0-8.0","umt3qb","Tue Feb 09 2021 10:02:55 GMT+0100 (CET)","2021","2","9","10","2","55","ib72","21","female","right","74","88","76","3","1","","","","","","","","",""
"null","<div style=""font-size:60px;"">+</div>","null","html-keyboard-response","9","82321","0.0-9.0-0.0","umt3qb","Tue Feb 09 2021 10:02:55 GMT+0100 (CET)","2021","2","9","10","2","55","ib72","21","female","right","74","88","76","3","1","","","","","fixation","","","",""
"1054","img/image_stim_h.png","72","image-keyboard-response","10","83380","0.0-9.0-1.0","umt3qb","Tue Feb 09 2021 10:02:55 GMT+0100 (CET)","2021","2","9","10","2","55","ib72","21","female","right","74","88","76","3","1","","","","","test","happy","happy","h","true"
"null","<div style=""font-size:60px;"">+</div>","null","html-keyboard-response","11","84134","0.0-9.0-0.1","umt3qb","Tue Feb 09 2021 10:02:55 GMT+0100 (CET)","2021","2","9","10","2","55","ib72","21","female","right","74","88","76","3","1","","","","","fixation","","","",""
"665.9999999999854","img/image_stim_f_stroop.png","70","image-keyboard-response","12","84803","0.0-9.0-1.1","umt3qb","Tue Feb 09 2021 10:02:55 GMT+0100 (CET)","2021","2","9","10","2","55","ib72","21","female","right","74","88","76","3","1","","","","","test","fear","happy","f","true"
"null","<div style=""font-size:60px;"">+</div>","null","html-keyboard-response","13","86056","0.0-9.0-0.2","umt3qb","Tue Feb 09 2021 10:02:55 GMT+0100 (CET)","2021","2","9","10","2","55","ib72","21","female","right","74","88","76","3","1","","","","","fixation","","","",""
"552","img/image_stim_f.png","70","image-keyboard-response","14","86611","0.0-9.0-1.2","umt3qb","Tue Feb 09 2021 10:02:55 GMT+0100 (CET)","2021","2","9","10","2","55","ib72","21","female","right","74","88","76","3","1","","","","","test","fear","fear","f","true"
"null","<div style=""font-size:60px;"">+</div>","null","html-keyboard-response","15","87864","0.0-9.0-0.3","umt3qb","Tue Feb 09 2021 10:02:55 GMT+0100 (CET)","2021","2","9","10","2","55","ib72","21","female","right","74","88","76","3","1","","","","","fixation","","","",""
"496","img/image_stim_h_stroop.png","72","image-keyboard-response","16","88363","0.0-9.0-1.3","umt3qb","Tue Feb 09 2021 10:02:55 GMT+0100 (CET)","2021","2","9","10","2","55","ib72","21","female","right","74","88","76","3","1","","","","","test","happy","fear","h","true"
"null","<div style=""font-size:60px;"">+</div>","null","html-keyboard-response","17","90366","0.0-9.0-0.4","umt3qb","Tue Feb 09 2021 10:02:55 GMT+0100 (CET)","2021","2","9","10","2","55","ib72","21","female","right","74","88","76","3","1","","","","","fixation","","","",""
"580","img/image_stim_h.png","72","image-keyboard-response","18","90947","0.0-9.0-1.4","umt3qb","Tue Feb 09 2021 10:02:55 GMT+0100 (CET)","2021","2","9","10","2","55","ib72","21","female","right","74","88","76","3","1","","","","","test","happy","happy","h","true"
"null","<div style=""font-size:60px;"">+</div>","null","html-keyboard-response","19","92199","0.0-9.0-0.5","umt3qb","Tue Feb 09 2021 10:02:55 GMT+0100 (CET)","2021","2","9","10","2","55","ib72","21","female","right","74","88","76","3","1","","","","","fixation","","","",""
"690","img/image_stim_f.png","70","image-keyboard-response","20","92891","0.0-9.0-1.5","umt3qb","Tue Feb 09 2021 10:02:55 GMT+0100 (CET)","2021","2","9","10","2","55","ib72","21","female","right","74","88","76","3","1","","","","","test","fear","fear","f","true"
"null","<div style=""font-size:60px;"">+</div>","null","html-keyboard-response","21","94144","0.0-9.0-0.6","umt3qb","Tue Feb 09 2021 10:02:55 GMT+0100 (CET)","2021","2","9","10","2","55","ib72","21","female","right","74","88","76","3","1","","","","","fixation","","","",""
"527.9999999999854","img/image_stim_f_stroop.png","70","image-keyboard-response","22","94674","0.0-9.0-1.6","umt3qb","Tue Feb 09 2021 10:02:55 GMT+0100 (CET)","2021","2","9","10","2","55","ib72","21","female","right","74","88","76","3","1","","","","","test","fear","happy","f","true"
"null","<div style=""font-size:60px;"">+</div>","null","html-keyboard-response","23","95428","0.0-9.0-0.7","umt3qb","Tue Feb 09 2021 10:02:55 GMT+0100 (CET)","2021","2","9","10","2","55","ib72","21","female","right","74","88","76","3","1","","","","","fixation","","","",""
"774","img/image_stim_h_stroop.png","72","image-keyboard-response","24","96203","0.0-9.0-1.7","umt3qb","Tue Feb 09 2021 10:02:55 GMT+0100 (CET)","2021","2","9","10","2","55","ib72","21","female","right","74","88","76","3","1","","","","","test","happy","fear","h","true"
"null","<div style=""font-size:60px;"">+</div>","null","html-keyboard-response","25","97956","0.0-9.0-0.8","umt3qb","Tue Feb 09 2021 10:02:55 GMT+0100 (CET)","2021","2","9","10","2","55","ib72","21","female","right","74","88","76","3","1","","","","","fixation","","","",""
"557.0000000000146","img/image_stim_h.png","72","image-keyboard-response","26","98515","0.0-9.0-1.8","umt3qb","Tue Feb 09 2021 10:02:55 GMT+0100 (CET)","2021","2","9","10","2","55","ib72","21","female","right","74","88","76","3","1","","","","","test","happy","happy","h","true"
"null","<div style=""font-size:60px;"">+</div>","null","html-keyboard-response","27","100018","0.0-9.0-0.9","umt3qb","Tue Feb 09 2021 10:02:55 GMT+0100 (CET)","2021","2","9","10","2","55","ib72","21","female","right","74","88","76","3","1","","","","","fixation","","","",""
"382.00000000001455","img/image_stim_f_stroop.png","70","image-keyboard-response","28","100402","0.0-9.0-1.9","umt3qb","Tue Feb 09 2021 10:02:55 GMT+0100 (CET)","2021","2","9","10","2","55","ib72","21","female","right","74","88","76","3","1","","","","","test","fear","happy","f","true"
"null","<div style=""font-size:60px;"">+</div>","null","html-keyboard-response","29","102156","0.0-9.0-0.10","umt3qb","Tue Feb 09 2021 10:02:55 GMT+0100 (CET)","2021","2","9","10","2","55","ib72","21","female","right","74","88","76","3","1","","","","","fixation","","","",""
"372","img/image_stim_h_stroop.png","72","image-keyboard-response","30","102530","0.0-9.0-1.10","umt3qb","Tue Feb 09 2021 10:02:55 GMT+0100 (CET)","2021","2","9","10","2","55","ib72","21","female","right","74","88","76","3","1","","","","","test","happy","fear","h","true"
"null","<div style=""font-size:60px;"">+</div>","null","html-keyboard-response","31","103535","0.0-9.0-0.11","umt3qb","Tue Feb 09 2021 10:02:55 GMT+0100 (CET)","2021","2","9","10","2","55","ib72","21","female","right","74","88","76","3","1","","","","","fixation","","","",""
"466.00000000001455","img/image_stim_f.png","70","image-keyboard-response","32","104002","0.0-9.0-1.11","umt3qb","Tue Feb 09 2021 10:02:55 GMT+0100 (CET)","2021","2","9","10","2","55","ib72","21","female","right","74","88","76","3","1","","","","","test","fear","fear","f","true"
"null","<div style=""font-size:60px;"">+</div>","null","html-keyboard-response","33","105257","0.0-9.0-0.12","umt3qb","Tue Feb 09 2021 10:02:55 GMT+0100 (CET)","2021","2","9","10","2","55","ib72","21","female","right","74","88","76","3","1","","","","","fixation","","","",""
"534.9999999999854","img/image_stim_h_stroop.png","72","image-keyboard-response","34","105794","0.0-9.0-1.12","umt3qb","Tue Feb 09 2021 10:02:55 GMT+0100 (CET)","2021","2","9","10","2","55","ib72","21","female","right","74","88","76","3","1","","","","","test","happy","fear","h","true"
"null","<div style=""font-size:60px;"">+</div>","null","html-keyboard-response","35","107049","0.0-9.0-0.13","umt3qb","Tue Feb 09 2021 10:02:55 GMT+0100 (CET)","2021","2","9","10","2","55","ib72","21","female","right","74","88","76","3","1","","","","","fixation","","","",""
"439.99999999998545","img/image_stim_f.png","70","image-keyboard-response","36","107490","0.0-9.0-1.13","umt3qb","Tue Feb 09 2021 10:02:55 GMT+0100 (CET)","2021","2","9","10","2","55","ib72","21","female","right","74","88","76","3","1","","","","","test","fear","fear","f","true"
"null","<div style=""font-size:60px;"">+</div>","null","html-keyboard-response","37","107996","0.0-9.0-0.14","umt3qb","Tue Feb 09 2021 10:02:55 GMT+0100 (CET)","2021","2","9","10","2","55","ib72","21","female","right","74","88","76","3","1","","","","","fixation","","","",""
"820.9999999999854","img/image_stim_f_stroop.png","70","image-keyboard-response","38","108818","0.0-9.0-1.14","umt3qb","Tue Feb 09 2021 10:02:55 GMT+0100 (CET)","2021","2","9","10","2","55","ib72","21","female","right","74","88","76","3","1","","","","","test","fear","happy","f","true"
"null","<div style=""font-size:60px;"">+</div>","null","html-keyboard-response","39","110573","0.0-9.0-0.15","umt3qb","Tue Feb 09 2021 10:02:55 GMT+0100 (CET)","2021","2","9","10","2","55","ib72","21","female","right","74","88","76","3","1","","","","","fixation","","","",""
"468","img/image_stim_h.png","72","image-keyboard-response","40","111042","0.0-9.0-1.15","umt3qb","Tue Feb 09 2021 10:02:55 GMT+0100 (CET)","2021","2","9","10","2","55","ib72","21","female","right","74","88","76","3","1","","","","","test","happy","happy","h","true"
"null","<div style=""font-size:60px;"">+</div>","null","html-keyboard-response","41","112798","0.0-9.0-0.16","umt3qb","Tue Feb 09 2021 10:02:55 GMT+0100 (CET)","2021","2","9","10","2","55","ib72","21","female","right","74","88","76","3","1","","","","","fixation","","","",""
"539","img/image_stim_f_stroop.png","70","image-keyboard-response","42","113338","0.0-9.0-1.16","umt3qb","Tue Feb 09 2021 10:02:55 GMT+0100 (CET)","2021","2","9","10","2","55","ib72","21","female","right","74","88","76","3","1","","","","","test","fear","happy","f","true"
"null","<div style=""font-size:60px;"">+</div>","null","html-keyboard-response","43","113593","0.0-9.0-0.17","umt3qb","Tue Feb 09 2021 10:02:55 GMT+0100 (CET)","2021","2","9","10","2","55","ib72","21","female","right","74","88","76","3","1","","","","","fixation","","","",""
"640","img/image_stim_f.png","70","image-keyboard-response","44","114234","0.0-9.0-1.17","umt3qb","Tue Feb 09 2021 10:02:55 GMT+0100 (CET)","2021","2","9","10","2","55","ib72","21","female","right","74","88","76","3","1","","","","","test","fear","fear","f","true"
"null","<div style=""font-size:60px;"">+</div>","null","html-keyboard-response","45","115240","0.0-9.0-0.18","umt3qb","Tue Feb 09 2021 10:02:55 GMT+0100 (CET)","2021","2","9","10","2","55","ib72","21","female","right","74","88","76","3","1","","","","","fixation","","","",""
"600","img/image_stim_h.png","72","image-keyboard-response","46","115842","0.0-9.0-1.18","umt3qb","Tue Feb 09 2021 10:02:55 GMT+0100 (CET)","2021","2","9","10","2","55","ib72","21","female","right","74","88","76","3","1","","","","","test","happy","happy","h","true"
"null","<div style=""font-size:60px;"">+</div>","null","html-keyboard-response","47","116597","0.0-9.0-0.19","umt3qb","Tue Feb 09 2021 10:02:55 GMT+0100 (CET)","2021","2","9","10","2","55","ib72","21","female","right","74","88","76","3","1","","","","","fixation","","","",""
"404","img/image_stim_h_stroop.png","72","image-keyboard-response","48","117002","0.0-9.0-1.19","umt3qb","Tue Feb 09 2021 10:02:55 GMT+0100 (CET)","2021","2","9","10","2","55","ib72","21","female","right","74","88","76","3","1","","","","","test","happy","fear","h","true"
"null","<div style=""font-size:60px;"">+</div>","null","html-keyboard-response","49","117258","0.0-9.0-0.20","umt3qb","Tue Feb 09 2021 10:02:55 GMT+0100 (CET)","2021","2","9","10","2","55","ib72","21","female","right","74","88","76","3","1","","","","","fixation","","","",""
"567","img/image_stim_h_stroop.png","72","image-keyboard-response","50","117826","0.0-9.0-1.20","umt3qb","Tue Feb 09 2021 10:02:55 GMT+0100 (CET)","2021","2","9","10","2","55","ib72","21","female","right","74","88","76","3","1","","","","","test","happy","fear","h","true"
"null","<div style=""font-size:60px;"">+</div>","null","html-keyboard-response","51","118082","0.0-9.0-0.21","umt3qb","Tue Feb 09 2021 10:02:55 GMT+0100 (CET)","2021","2","9","10","2","55","ib72","21","female","right","74","88","76","3","1","","","","","fixation","","","",""
"614.9999999999709","img/image_stim_f.png","70","image-keyboard-response","52","118698","0.0-9.0-1.21","umt3qb","Tue Feb 09 2021 10:02:55 GMT+0100 (CET)","2021","2","9","10","2","55","ib72","21","female","right","74","88","76","3","1","","","","","test","fear","fear","f","true"
"null","<div style=""font-size:60px;"">+</div>","null","html-keyboard-response","53","119203","0.0-9.0-0.22","umt3qb","Tue Feb 09 2021 10:02:55 GMT+0100 (CET)","2021","2","9","10","2","55","ib72","21","female","right","74","88","76","3","1","","","","","fixation","","","",""
"742.0000000000146","img/image_stim_h.png","72","image-keyboard-response","54","119946","0.0-9.0-1.22","umt3qb","Tue Feb 09 2021 10:02:55 GMT+0100 (CET)","2021","2","9","10","2","55","ib72","21","female","right","74","88","76","3","1","","","","","test","happy","happy","h","true"
"null","<div style=""font-size:60px;"">+</div>","null","html-keyboard-response","55","120202","0.0-9.0-0.23","umt3qb","Tue Feb 09 2021 10:02:55 GMT+0100 (CET)","2021","2","9","10","2","55","ib72","21","female","right","74","88","76","3","1","","","","","fixation","","","",""
"646","img/image_stim_f_stroop.png","70","image-keyboard-response","56","120850","0.0-9.0-1.23","umt3qb","Tue Feb 09 2021 10:02:55 GMT+0100 (CET)","2021","2","9","10","2","55","ib72","21","female","right","74","88","76","3","1","","","","","test","fear","happy","f","true"
"null","<div style=""font-size:60px;"">+</div>","null","html-keyboard-response","57","122606","0.0-9.0-0.24","umt3qb","Tue Feb 09 2021 10:02:55 GMT+0100 (CET)","2021","2","9","10","2","55","ib72","21","female","right","74","88","76","3","1","","","","","fixation","","","",""
"507.0000000000291","img/image_stim_h.png","72","image-keyboard-response","58","123114","0.0-9.0-1.24","umt3qb","Tue Feb 09 2021 10:02:55 GMT+0100 (CET)","2021","2","9","10","2","55","ib72","21","female","right","74","88","76","3","1","","","","","test","happy","happy","h","true"
"null","<div style=""font-size:60px;"">+</div>","null","html-keyboard-response","59","125118","0.0-9.0-0.25","umt3qb","Tue Feb 09 2021 10:02:55 GMT+0100 (CET)","2021","2","9","10","2","55","ib72","21","female","right","74","88","76","3","1","","","","","fixation","","","",""
"571","img/image_stim_f.png","70","image-keyboard-response","60","125690","0.0-9.0-1.25","umt3qb","Tue Feb 09 2021 10:02:55 GMT+0100 (CET)","2021","2","9","10","2","55","ib72","21","female","right","74","88","76","3","1","","","","","test","fear","fear","f","true"
"null","<div style=""font-size:60px;"">+</div>","null","html-keyboard-response","61","127194","0.0-9.0-0.26","umt3qb","Tue Feb 09 2021 10:02:55 GMT+0100 (CET)","2021","2","9","10","2","55","ib72","21","female","right","74","88","76","3","1","","","","","fixation","","","",""
"743","img/image_stim_f_stroop.png","70","image-keyboard-response","62","127938","0.0-9.0-1.26","umt3qb","Tue Feb 09 2021 10:02:55 GMT+0100 (CET)","2021","2","9","10","2","55","ib72","21","female","right","74","88","76","3","1","","","","","test","fear","happy","f","true"
"null","<div style=""font-size:60px;"">+</div>","null","html-keyboard-response","63","129942","0.0-9.0-0.27","umt3qb","Tue Feb 09 2021 10:02:55 GMT+0100 (CET)","2021","2","9","10","2","55","ib72","21","female","right","74","88","76","3","1","","","","","fixation","","","",""
"595","img/image_stim_h_stroop.png","72","image-keyboard-response","64","130538","0.0-9.0-1.27","umt3qb","Tue Feb 09 2021 10:02:55 GMT+0100 (CET)","2021","2","9","10","2","55","ib72","21","female","right","74","88","76","3","1","","","","","test","happy","fear","h","true"
"null","<div style=""font-size:60px;"">+</div>","null","html-keyboard-response","65","132042","0.0-9.0-0.28","umt3qb","Tue Feb 09 2021 10:02:55 GMT+0100 (CET)","2021","2","9","10","2","55","ib72","21","female","right","74","88","76","3","1","","","","","fixation","","","",""
"535.0000000000291","img/image_stim_f.png","70","image-keyboard-response","66","132578","0.0-9.0-1.28","umt3qb","Tue Feb 09 2021 10:02:55 GMT+0100 (CET)","2021","2","9","10","2","55","ib72","21","female","right","74","88","76","3","1","","","","","test","fear","fear","f","true"
"null","<div style=""font-size:60px;"">+</div>","null","html-keyboard-response","67","133582","0.0-9.0-0.29","umt3qb","Tue Feb 09 2021 10:02:55 GMT+0100 (CET)","2021","2","9","10","2","55","ib72","21","female","right","74","88","76","3","1","","","","","fixation","","","",""
"577.9999999999709","img/image_stim_h.png","72","image-keyboard-response","68","134162","0.0-9.0-1.29","umt3qb","Tue Feb 09 2021 10:02:55 GMT+0100 (CET)","2021","2","9","10","2","55","ib72","21","female","right","74","88","76","3","1","","","","","test","happy","happy","h","true"
"null","<div style=""font-size:60px;"">+</div>","null","html-keyboard-response","69","135916","0.0-9.0-0.30","umt3qb","Tue Feb 09 2021 10:02:55 GMT+0100 (CET)","2021","2","9","10","2","55","ib72","21","female","right","74","88","76","3","1","","","","","fixation","","","",""
"548","img/image_stim_h_stroop.png","72","image-keyboard-response","70","136465","0.0-9.0-1.30","umt3qb","Tue Feb 09 2021 10:02:55 GMT+0100 (CET)","2021","2","9","10","2","55","ib72","21","female","right","74","88","76","3","1","","","","","test","happy","fear","h","true"
"null","<div style=""font-size:60px;"">+</div>","null","html-keyboard-response","71","137720","0.0-9.0-0.31","umt3qb","Tue Feb 09 2021 10:02:55 GMT+0100 (CET)","2021","2","9","10","2","55","ib72","21","female","right","74","88","76","3","1","","","","","fixation","","","",""
"440","img/image_stim_f_stroop.png","70","image-keyboard-response","72","138161","0.0-9.0-1.31","umt3qb","Tue Feb 09 2021 10:02:55 GMT+0100 (CET)","2021","2","9","10","2","55","ib72","21","female","right","74","88","76","3","1","","","","","test","fear","happy","f","true"
"null","<div style=""font-size:60px;"">+</div>","null","html-keyboard-response","73","139416","0.0-9.0-0.32","umt3qb","Tue Feb 09 2021 10:02:55 GMT+0100 (CET)","2021","2","9","10","2","55","ib72","21","female","right","74","88","76","3","1","","","","","fixation","","","",""
"367","img/image_stim_h_stroop.png","72","image-keyboard-response","74","139785","0.0-9.0-1.32","umt3qb","Tue Feb 09 2021 10:02:55 GMT+0100 (CET)","2021","2","9","10","2","55","ib72","21","female","right","74","88","76","3","1","","","","","test","happy","fear","h","true"
"null","<div style=""font-size:60px;"">+</div>","null","html-keyboard-response","75","140290","0.0-9.0-0.33","umt3qb","Tue Feb 09 2021 10:02:55 GMT+0100 (CET)","2021","2","9","10","2","55","ib72","21","female","right","74","88","76","3","1","","","","","fixation","","","",""
"479","img/image_stim_h.png","72","image-keyboard-response","76","140770","0.0-9.0-1.33","umt3qb","Tue Feb 09 2021 10:02:55 GMT+0100 (CET)","2021","2","9","10","2","55","ib72","21","female","right","74","88","76","3","1","","","","","test","happy","happy","h","true"
"null","<div style=""font-size:60px;"">+</div>","null","html-keyboard-response","77","142774","0.0-9.0-0.34","umt3qb","Tue Feb 09 2021 10:02:55 GMT+0100 (CET)","2021","2","9","10","2","55","ib72","21","female","right","74","88","76","3","1","","","","","fixation","","","",""
"458","img/image_stim_f_stroop.png","70","image-keyboard-response","78","143233","0.0-9.0-1.34","umt3qb","Tue Feb 09 2021 10:02:55 GMT+0100 (CET)","2021","2","9","10","2","55","ib72","21","female","right","74","88","76","3","1","","","","","test","fear","happy","f","true"
"null","<div style=""font-size:60px;"">+</div>","null","html-keyboard-response","79","143987","0.0-9.0-0.35","umt3qb","Tue Feb 09 2021 10:02:55 GMT+0100 (CET)","2021","2","9","10","2","55","ib72","21","female","right","74","88","76","3","1","","","","","fixation","","","",""
"404.9999999999709","img/image_stim_f.png","70","image-keyboard-response","80","144393","0.0-9.0-1.35","umt3qb","Tue Feb 09 2021 10:02:55 GMT+0100 (CET)","2021","2","9","10","2","55","ib72","21","female","right","74","88","76","3","1","","","","","test","fear","fear","f","true"
