"rt","stimulus","key_press","trial_type","trial_index","time_elapsed","internal_node_id","exp_id","Time","year","month","date","hour","minute","seconds","id","age","Gender","Handedness","mood","fresh","hunger","H_since_Sleep","H_since_Eat","responses","question_order","slider_start","response","test_part","face","word","correct_response","correct"
"6620.855000015581","<p>Welcome to this experiment on daily rhythms and cognition.</p><p>First you will be asked some questions about yourself.</p><p>Then a short experiment will measure your response time.</p><p>Take the test at different times of the day/night.</p><p>The test is anonymous, but comparing your data across time is important.</p><p>Therefore, please make up and remember a personal ID (two letters+ two numbers).</p><p>Use this ID whenever taking the test.</p><p><strong>Press any key to begin.</strong></p>","32","html-keyboard-response","0","6623","0.0-0.0","q0bl2n","Sat Feb 13 2021 02:01:02 GMT+0100 (Centraleuropæisk normaltid)","2021","2","13","2","1","2","uc11","21","male","right","50","17","96","18","4","","","","","","","","",""
"5741.455000010319","","","survey-text","1","12371","0.0-1.0","q0bl2n","Sat Feb 13 2021 02:01:02 GMT+0100 (Centraleuropæisk normaltid)","2021","2","13","2","1","2","uc11","21","male","right","50","17","96","18","4","{""Q0"":""uc11""}","","","","","","","",""
"3507.400000002235","","","survey-text","2","15880","0.0-2.0","q0bl2n","Sat Feb 13 2021 02:01:02 GMT+0100 (Centraleuropæisk normaltid)","2021","2","13","2","1","2","uc11","21","male","right","50","17","96","18","4","{""Q0"":""21""}","","","","","","","",""
"7402.895000006538","","","survey-multi-select","3","23286","0.0-3.0","q0bl2n","Sat Feb 13 2021 02:01:02 GMT+0100 (Centraleuropæisk normaltid)","2021","2","13","2","1","2","uc11","21","male","right","50","17","96","18","4","{""Gender"":[""male""],""Hand"":[""right""]}","[0,1]","","","","","","",""
"23458.17500000703","<p>How Sad/Angry or Happy are you right now?</p>","","html-slider-response","4","46746","0.0-4.0","q0bl2n","Sat Feb 13 2021 02:01:02 GMT+0100 (Centraleuropæisk normaltid)","2021","2","13","2","1","2","uc11","21","male","right","50","17","96","18","4","","","50","50","","","","",""
"28792.110000009416","<p>How Tired/Sleepy/Distracted or Fresh/Awake/Alert are you right now?</p>","","html-slider-response","5","75540","0.0-5.0","q0bl2n","Sat Feb 13 2021 02:01:02 GMT+0100 (Centraleuropæisk normaltid)","2021","2","13","2","1","2","uc11","21","male","right","50","17","96","18","4","","","50","17","","","","",""
"17370.934999984456","<p>How Hungry or Satiated are you right now?</p>","","html-slider-response","6","92912","0.0-6.0","q0bl2n","Sat Feb 13 2021 02:01:02 GMT+0100 (Centraleuropæisk normaltid)","2021","2","13","2","1","2","uc11","21","male","right","50","17","96","18","4","","","50","96","","","","",""
"187913.40499999933","","","survey-multi-select","7","280839","0.0-7.0","q0bl2n","Sat Feb 13 2021 02:01:02 GMT+0100 (Centraleuropæisk normaltid)","2021","2","13","2","1","2","uc11","21","male","right","50","17","96","18","4","{""Sleep"":[""18""],""Eat"":[""4""]}","[0,1]","","","","","","",""
"16436.06499998714","<p>In this experiment, a face and a word will appear in the center of the screen.</p><p>If the face is <strong>happy</strong>, press the letter <strong>H</strong> with <strong>right</strong> index finger.</p><p>If the face is <strong>fearful</strong>, press the letter <strong>F</strong> with <strong>left</strong> index finger.</p><p><strong>Ignore the written words</strong>. Respond as fast as possible while being correct. </p><div style='width: 900px;'><div style='float: left;'><img src='img/stimuli_stroop_happy.png'></img><p class='small'><strong>Press the H key for happy faces</strong></p></div><div class='float: right;'><img src='img/stimuli_stroop_fear.png'></img><p class='small'><strong>Press the F key for faces with fear</strong></p></div></div><p>If the screen turns blank, press <strong>SPACE</strong></p><p><strong>Press any key to begin.</strong></p>","32","html-keyboard-response","8","297277","0.0-8.0","q0bl2n","Sat Feb 13 2021 02:01:02 GMT+0100 (Centraleuropæisk normaltid)","2021","2","13","2","1","2","uc11","21","male","right","50","17","96","18","4","","","","","","","","",""
"null","<div style=""font-size:60px;"">+</div>","null","html-keyboard-response","9","300032","0.0-9.0-0.0","q0bl2n","Sat Feb 13 2021 02:01:02 GMT+0100 (Centraleuropæisk normaltid)","2021","2","13","2","1","2","uc11","21","male","right","50","17","96","18","4","","","","","fixation","","","",""
"578.3850000007078","img/image_stim_h_stroop.png","72","image-keyboard-response","10","300642","0.0-9.0-1.0","q0bl2n","Sat Feb 13 2021 02:01:02 GMT+0100 (Centraleuropæisk normaltid)","2021","2","13","2","1","2","uc11","21","male","right","50","17","96","18","4","","","","","test","happy","fear","h","true"
"null","<div style=""font-size:60px;"">+</div>","null","html-keyboard-response","11","302651","0.0-9.0-0.1","q0bl2n","Sat Feb 13 2021 02:01:02 GMT+0100 (Centraleuropæisk normaltid)","2021","2","13","2","1","2","uc11","21","male","right","50","17","96","18","4","","","","","fixation","","","",""
"482.335000007879","img/image_stim_f_stroop.png","70","image-keyboard-response","12","303136","0.0-9.0-1.1","q0bl2n","Sat Feb 13 2021 02:01:02 GMT+0100 (Centraleuropæisk normaltid)","2021","2","13","2","1","2","uc11","21","male","right","50","17","96","18","4","","","","","test","fear","happy","f","true"
"null","<div style=""font-size:60px;"">+</div>","null","html-keyboard-response","13","304142","0.0-9.0-0.2","q0bl2n","Sat Feb 13 2021 02:01:02 GMT+0100 (Centraleuropæisk normaltid)","2021","2","13","2","1","2","uc11","21","male","right","50","17","96","18","4","","","","","fixation","","","",""
"447.67999998293817","img/image_stim_h.png","72","image-keyboard-response","14","304592","0.0-9.0-1.2","q0bl2n","Sat Feb 13 2021 02:01:02 GMT+0100 (Centraleuropæisk normaltid)","2021","2","13","2","1","2","uc11","21","male","right","50","17","96","18","4","","","","","test","happy","happy","h","true"
"null","<div style=""font-size:60px;"">+</div>","null","html-keyboard-response","15","306100","0.0-9.0-0.3","q0bl2n","Sat Feb 13 2021 02:01:02 GMT+0100 (Centraleuropæisk normaltid)","2021","2","13","2","1","2","uc11","21","male","right","50","17","96","18","4","","","","","fixation","","","",""
"480.34999999799766","img/image_stim_f.png","70","image-keyboard-response","16","306583","0.0-9.0-1.3","q0bl2n","Sat Feb 13 2021 02:01:02 GMT+0100 (Centraleuropæisk normaltid)","2021","2","13","2","1","2","uc11","21","male","right","50","17","96","18","4","","","","","test","fear","fear","f","true"
"null","<div style=""font-size:60px;"">+</div>","null","html-keyboard-response","17","308089","0.0-9.0-0.4","q0bl2n","Sat Feb 13 2021 02:01:02 GMT+0100 (Centraleuropæisk normaltid)","2021","2","13","2","1","2","uc11","21","male","right","50","17","96","18","4","","","","","fixation","","","",""
"344.2250000080094","img/image_stim_f.png","70","image-keyboard-response","18","308435","0.0-9.0-1.4","q0bl2n","Sat Feb 13 2021 02:01:02 GMT+0100 (Centraleuropæisk normaltid)","2021","2","13","2","1","2","uc11","21","male","right","50","17","96","18","4","","","","","test","fear","fear","f","true"
"null","<div style=""font-size:60px;"">+</div>","null","html-keyboard-response","19","308689","0.0-9.0-0.5","q0bl2n","Sat Feb 13 2021 02:01:02 GMT+0100 (Centraleuropæisk normaltid)","2021","2","13","2","1","2","uc11","21","male","right","50","17","96","18","4","","","","","fixation","","","",""
"470.53500000038184","img/image_stim_h_stroop.png","72","image-keyboard-response","20","309161","0.0-9.0-1.5","q0bl2n","Sat Feb 13 2021 02:01:02 GMT+0100 (Centraleuropæisk normaltid)","2021","2","13","2","1","2","uc11","21","male","right","50","17","96","18","4","","","","","test","happy","fear","h","true"
"null","<div style=""font-size:60px;"">+</div>","null","html-keyboard-response","21","309414","0.0-9.0-0.6","q0bl2n","Sat Feb 13 2021 02:01:02 GMT+0100 (Centraleuropæisk normaltid)","2021","2","13","2","1","2","uc11","21","male","right","50","17","96","18","4","","","","","fixation","","","",""
"469.8949999874458","img/image_stim_h.png","72","image-keyboard-response","22","309886","0.0-9.0-1.6","q0bl2n","Sat Feb 13 2021 02:01:02 GMT+0100 (Centraleuropæisk normaltid)","2021","2","13","2","1","2","uc11","21","male","right","50","17","96","18","4","","","","","test","happy","happy","h","true"
"null","<div style=""font-size:60px;"">+</div>","null","html-keyboard-response","23","310392","0.0-9.0-0.7","q0bl2n","Sat Feb 13 2021 02:01:02 GMT+0100 (Centraleuropæisk normaltid)","2021","2","13","2","1","2","uc11","21","male","right","50","17","96","18","4","","","","","fixation","","","",""
"464.7149999800604","img/image_stim_f_stroop.png","70","image-keyboard-response","24","310857","0.0-9.0-1.7","q0bl2n","Sat Feb 13 2021 02:01:02 GMT+0100 (Centraleuropæisk normaltid)","2021","2","13","2","1","2","uc11","21","male","right","50","17","96","18","4","","","","","test","fear","happy","f","true"
"null","<div style=""font-size:60px;"">+</div>","null","html-keyboard-response","25","312610","0.0-9.0-0.8","q0bl2n","Sat Feb 13 2021 02:01:02 GMT+0100 (Centraleuropæisk normaltid)","2021","2","13","2","1","2","uc11","21","male","right","50","17","96","18","4","","","","","fixation","","","",""
"524.4249999814201","img/image_stim_f.png","70","image-keyboard-response","26","313136","0.0-9.0-1.8","q0bl2n","Sat Feb 13 2021 02:01:02 GMT+0100 (Centraleuropæisk normaltid)","2021","2","13","2","1","2","uc11","21","male","right","50","17","96","18","4","","","","","test","fear","fear","f","true"
"null","<div style=""font-size:60px;"">+</div>","null","html-keyboard-response","27","313394","0.0-9.0-0.9","q0bl2n","Sat Feb 13 2021 02:01:02 GMT+0100 (Centraleuropæisk normaltid)","2021","2","13","2","1","2","uc11","21","male","right","50","17","96","18","4","","","","","fixation","","","",""
"519.0900000161491","img/image_stim_h_stroop.png","72","image-keyboard-response","28","313915","0.0-9.0-1.9","q0bl2n","Sat Feb 13 2021 02:01:02 GMT+0100 (Centraleuropæisk normaltid)","2021","2","13","2","1","2","uc11","21","male","right","50","17","96","18","4","","","","","test","happy","fear","h","true"
"null","<div style=""font-size:60px;"">+</div>","null","html-keyboard-response","29","315170","0.0-9.0-0.10","q0bl2n","Sat Feb 13 2021 02:01:02 GMT+0100 (Centraleuropæisk normaltid)","2021","2","13","2","1","2","uc11","21","male","right","50","17","96","18","4","","","","","fixation","","","",""
"468.380000005709","img/image_stim_f_stroop.png","70","image-keyboard-response","30","315641","0.0-9.0-1.10","q0bl2n","Sat Feb 13 2021 02:01:02 GMT+0100 (Centraleuropæisk normaltid)","2021","2","13","2","1","2","uc11","21","male","right","50","17","96","18","4","","","","","test","fear","happy","f","true"
"null","<div style=""font-size:60px;"">+</div>","null","html-keyboard-response","31","316648","0.0-9.0-0.11","q0bl2n","Sat Feb 13 2021 02:01:02 GMT+0100 (Centraleuropæisk normaltid)","2021","2","13","2","1","2","uc11","21","male","right","50","17","96","18","4","","","","","fixation","","","",""
"428.570000018226","img/image_stim_h.png","72","image-keyboard-response","32","317079","0.0-9.0-1.11","q0bl2n","Sat Feb 13 2021 02:01:02 GMT+0100 (Centraleuropæisk normaltid)","2021","2","13","2","1","2","uc11","21","male","right","50","17","96","18","4","","","","","test","happy","happy","h","true"
"null","<div style=""font-size:60px;"">+</div>","null","html-keyboard-response","33","317337","0.0-9.0-0.12","q0bl2n","Sat Feb 13 2021 02:01:02 GMT+0100 (Centraleuropæisk normaltid)","2021","2","13","2","1","2","uc11","21","male","right","50","17","96","18","4","","","","","fixation","","","",""
"593.4650000126567","img/image_stim_f_stroop.png","70","image-keyboard-response","34","317933","0.0-9.0-1.12","q0bl2n","Sat Feb 13 2021 02:01:02 GMT+0100 (Centraleuropæisk normaltid)","2021","2","13","2","1","2","uc11","21","male","right","50","17","96","18","4","","","","","test","fear","happy","f","true"
"null","<div style=""font-size:60px;"">+</div>","null","html-keyboard-response","35","319691","0.0-9.0-0.13","q0bl2n","Sat Feb 13 2021 02:01:02 GMT+0100 (Centraleuropæisk normaltid)","2021","2","13","2","1","2","uc11","21","male","right","50","17","96","18","4","","","","","fixation","","","",""
"628.3600000024308","img/image_stim_f.png","70","image-keyboard-response","36","320323","0.0-9.0-1.13","q0bl2n","Sat Feb 13 2021 02:01:02 GMT+0100 (Centraleuropæisk normaltid)","2021","2","13","2","1","2","uc11","21","male","right","50","17","96","18","4","","","","","test","fear","fear","f","true"
"null","<div style=""font-size:60px;"">+</div>","null","html-keyboard-response","37","322080","0.0-9.0-0.14","q0bl2n","Sat Feb 13 2021 02:01:02 GMT+0100 (Centraleuropæisk normaltid)","2021","2","13","2","1","2","uc11","21","male","right","50","17","96","18","4","","","","","fixation","","","",""
"434.5550000143703","img/image_stim_h.png","72","image-keyboard-response","38","322517","0.0-9.0-1.14","q0bl2n","Sat Feb 13 2021 02:01:02 GMT+0100 (Centraleuropæisk normaltid)","2021","2","13","2","1","2","uc11","21","male","right","50","17","96","18","4","","","","","test","happy","happy","h","true"
"null","<div style=""font-size:60px;"">+</div>","null","html-keyboard-response","39","324273","0.0-9.0-0.15","q0bl2n","Sat Feb 13 2021 02:01:02 GMT+0100 (Centraleuropæisk normaltid)","2021","2","13","2","1","2","uc11","21","male","right","50","17","96","18","4","","","","","fixation","","","",""
"390.6800000113435","img/image_stim_h_stroop.png","70","image-keyboard-response","40","324667","0.0-9.0-1.15","q0bl2n","Sat Feb 13 2021 02:01:02 GMT+0100 (Centraleuropæisk normaltid)","2021","2","13","2","1","2","uc11","21","male","right","50","17","96","18","4","","","","","test","happy","fear","h","false"
"null","<div style=""font-size:60px;"">+</div>","null","html-keyboard-response","41","325175","0.0-9.0-0.16","q0bl2n","Sat Feb 13 2021 02:01:02 GMT+0100 (Centraleuropæisk normaltid)","2021","2","13","2","1","2","uc11","21","male","right","50","17","96","18","4","","","","","fixation","","","",""
"549.5050000026822","img/image_stim_f_stroop.png","70","image-keyboard-response","42","325727","0.0-9.0-1.16","q0bl2n","Sat Feb 13 2021 02:01:02 GMT+0100 (Centraleuropæisk normaltid)","2021","2","13","2","1","2","uc11","21","male","right","50","17","96","18","4","","","","","test","fear","happy","f","true"
"null","<div style=""font-size:60px;"">+</div>","null","html-keyboard-response","43","327734","0.0-9.0-0.17","q0bl2n","Sat Feb 13 2021 02:01:02 GMT+0100 (Centraleuropæisk normaltid)","2021","2","13","2","1","2","uc11","21","male","right","50","17","96","18","4","","","","","fixation","","","",""
"615.9649999754038","img/image_stim_f.png","70","image-keyboard-response","44","328353","0.0-9.0-1.17","q0bl2n","Sat Feb 13 2021 02:01:02 GMT+0100 (Centraleuropæisk normaltid)","2021","2","13","2","1","2","uc11","21","male","right","50","17","96","18","4","","","","","test","fear","fear","f","true"
"null","<div style=""font-size:60px;"">+</div>","null","html-keyboard-response","45","329612","0.0-9.0-0.18","q0bl2n","Sat Feb 13 2021 02:01:02 GMT+0100 (Centraleuropæisk normaltid)","2021","2","13","2","1","2","uc11","21","male","right","50","17","96","18","4","","","","","fixation","","","",""
"514.7100000176579","img/image_stim_h.png","72","image-keyboard-response","46","330130","0.0-9.0-1.18","q0bl2n","Sat Feb 13 2021 02:01:02 GMT+0100 (Centraleuropæisk normaltid)","2021","2","13","2","1","2","uc11","21","male","right","50","17","96","18","4","","","","","test","happy","happy","h","true"
"null","<div style=""font-size:60px;"">+</div>","null","html-keyboard-response","47","330888","0.0-9.0-0.19","q0bl2n","Sat Feb 13 2021 02:01:02 GMT+0100 (Centraleuropæisk normaltid)","2021","2","13","2","1","2","uc11","21","male","right","50","17","96","18","4","","","","","fixation","","","",""
"468.8449999957811","img/image_stim_h_stroop.png","72","image-keyboard-response","48","331360","0.0-9.0-1.19","q0bl2n","Sat Feb 13 2021 02:01:02 GMT+0100 (Centraleuropæisk normaltid)","2021","2","13","2","1","2","uc11","21","male","right","50","17","96","18","4","","","","","test","happy","fear","h","true"
"null","<div style=""font-size:60px;"">+</div>","null","html-keyboard-response","49","332367","0.0-9.0-0.20","q0bl2n","Sat Feb 13 2021 02:01:02 GMT+0100 (Centraleuropæisk normaltid)","2021","2","13","2","1","2","uc11","21","male","right","50","17","96","18","4","","","","","fixation","","","",""
"887.3949999979232","img/image_stim_f.png","70","image-keyboard-response","50","333257","0.0-9.0-1.20","q0bl2n","Sat Feb 13 2021 02:01:02 GMT+0100 (Centraleuropæisk normaltid)","2021","2","13","2","1","2","uc11","21","male","right","50","17","96","18","4","","","","","test","fear","fear","f","true"
"null","<div style=""font-size:60px;"">+</div>","null","html-keyboard-response","51","334764","0.0-9.0-0.21","q0bl2n","Sat Feb 13 2021 02:01:02 GMT+0100 (Centraleuropæisk normaltid)","2021","2","13","2","1","2","uc11","21","male","right","50","17","96","18","4","","","","","fixation","","","",""
"495.3899999964051","img/image_stim_h_stroop.png","72","image-keyboard-response","52","335260","0.0-9.0-1.21","q0bl2n","Sat Feb 13 2021 02:01:02 GMT+0100 (Centraleuropæisk normaltid)","2021","2","13","2","1","2","uc11","21","male","right","50","17","96","18","4","","","","","test","happy","fear","h","true"
"null","<div style=""font-size:60px;"">+</div>","null","html-keyboard-response","53","337018","0.0-9.0-0.22","q0bl2n","Sat Feb 13 2021 02:01:02 GMT+0100 (Centraleuropæisk normaltid)","2021","2","13","2","1","2","uc11","21","male","right","50","17","96","18","4","","","","","fixation","","","",""
"502.2900000039954","img/image_stim_h.png","72","image-keyboard-response","54","337523","0.0-9.0-1.22","q0bl2n","Sat Feb 13 2021 02:01:02 GMT+0100 (Centraleuropæisk normaltid)","2021","2","13","2","1","2","uc11","21","male","right","50","17","96","18","4","","","","","test","happy","happy","h","true"
"null","<div style=""font-size:60px;"">+</div>","null","html-keyboard-response","55","339281","0.0-9.0-0.23","q0bl2n","Sat Feb 13 2021 02:01:02 GMT+0100 (Centraleuropæisk normaltid)","2021","2","13","2","1","2","uc11","21","male","right","50","17","96","18","4","","","","","fixation","","","",""
"507.74500000989065","img/image_stim_f_stroop.png","70","image-keyboard-response","56","339791","0.0-9.0-1.23","q0bl2n","Sat Feb 13 2021 02:01:02 GMT+0100 (Centraleuropæisk normaltid)","2021","2","13","2","1","2","uc11","21","male","right","50","17","96","18","4","","","","","test","fear","happy","f","true"
"null","<div style=""font-size:60px;"">+</div>","null","html-keyboard-response","57","341551","0.0-9.0-0.24","q0bl2n","Sat Feb 13 2021 02:01:02 GMT+0100 (Centraleuropæisk normaltid)","2021","2","13","2","1","2","uc11","21","male","right","50","17","96","18","4","","","","","fixation","","","",""
"808.4300000045914","img/image_stim_h_stroop.png","72","image-keyboard-response","58","342363","0.0-9.0-1.24","q0bl2n","Sat Feb 13 2021 02:01:02 GMT+0100 (Centraleuropæisk normaltid)","2021","2","13","2","1","2","uc11","21","male","right","50","17","96","18","4","","","","","test","happy","fear","h","true"
"null","<div style=""font-size:60px;"">+</div>","null","html-keyboard-response","59","343122","0.0-9.0-0.25","q0bl2n","Sat Feb 13 2021 02:01:02 GMT+0100 (Centraleuropæisk normaltid)","2021","2","13","2","1","2","uc11","21","male","right","50","17","96","18","4","","","","","fixation","","","",""
"485.3000000002794","img/image_stim_f.png","70","image-keyboard-response","60","343610","0.0-9.0-1.25","q0bl2n","Sat Feb 13 2021 02:01:02 GMT+0100 (Centraleuropæisk normaltid)","2021","2","13","2","1","2","uc11","21","male","right","50","17","96","18","4","","","","","test","fear","fear","f","true"
"null","<div style=""font-size:60px;"">+</div>","null","html-keyboard-response","61","345119","0.0-9.0-0.26","q0bl2n","Sat Feb 13 2021 02:01:02 GMT+0100 (Centraleuropæisk normaltid)","2021","2","13","2","1","2","uc11","21","male","right","50","17","96","18","4","","","","","fixation","","","",""
"528.4099999989849","img/image_stim_h.png","72","image-keyboard-response","62","345650","0.0-9.0-1.26","q0bl2n","Sat Feb 13 2021 02:01:02 GMT+0100 (Centraleuropæisk normaltid)","2021","2","13","2","1","2","uc11","21","male","right","50","17","96","18","4","","","","","test","happy","happy","h","true"
"null","<div style=""font-size:60px;"">+</div>","null","html-keyboard-response","63","346409","0.0-9.0-0.27","q0bl2n","Sat Feb 13 2021 02:01:02 GMT+0100 (Centraleuropæisk normaltid)","2021","2","13","2","1","2","uc11","21","male","right","50","17","96","18","4","","","","","fixation","","","",""
"596.609999978682","img/image_stim_f_stroop.png","70","image-keyboard-response","64","347008","0.0-9.0-1.27","q0bl2n","Sat Feb 13 2021 02:01:02 GMT+0100 (Centraleuropæisk normaltid)","2021","2","13","2","1","2","uc11","21","male","right","50","17","96","18","4","","","","","test","fear","happy","f","true"
"null","<div style=""font-size:60px;"">+</div>","null","html-keyboard-response","65","347766","0.0-9.0-0.28","q0bl2n","Sat Feb 13 2021 02:01:02 GMT+0100 (Centraleuropæisk normaltid)","2021","2","13","2","1","2","uc11","21","male","right","50","17","96","18","4","","","","","fixation","","","",""
"603.0050000117626","img/image_stim_f.png","70","image-keyboard-response","66","348372","0.0-9.0-1.28","q0bl2n","Sat Feb 13 2021 02:01:02 GMT+0100 (Centraleuropæisk normaltid)","2021","2","13","2","1","2","uc11","21","male","right","50","17","96","18","4","","","","","test","fear","fear","f","true"
"null","<div style=""font-size:60px;"">+</div>","null","html-keyboard-response","67","350383","0.0-9.0-0.29","q0bl2n","Sat Feb 13 2021 02:01:02 GMT+0100 (Centraleuropæisk normaltid)","2021","2","13","2","1","2","uc11","21","male","right","50","17","96","18","4","","","","","fixation","","","",""
"620.6800000218209","img/image_stim_h_stroop.png","72","image-keyboard-response","68","351008","0.0-9.0-1.29","q0bl2n","Sat Feb 13 2021 02:01:02 GMT+0100 (Centraleuropæisk normaltid)","2021","2","13","2","1","2","uc11","21","male","right","50","17","96","18","4","","","","","test","happy","fear","h","true"
"null","<div style=""font-size:60px;"">+</div>","null","html-keyboard-response","69","353028","0.0-9.0-0.30","q0bl2n","Sat Feb 13 2021 02:01:02 GMT+0100 (Centraleuropæisk normaltid)","2021","2","13","2","1","2","uc11","21","male","right","50","17","96","18","4","","","","","fixation","","","",""
"565.7349999819417","img/image_stim_h.png","72","image-keyboard-response","70","353597","0.0-9.0-1.30","q0bl2n","Sat Feb 13 2021 02:01:02 GMT+0100 (Centraleuropæisk normaltid)","2021","2","13","2","1","2","uc11","21","male","right","50","17","96","18","4","","","","","test","happy","happy","h","true"
"null","<div style=""font-size:60px;"">+</div>","null","html-keyboard-response","71","354609","0.0-9.0-0.31","q0bl2n","Sat Feb 13 2021 02:01:02 GMT+0100 (Centraleuropæisk normaltid)","2021","2","13","2","1","2","uc11","21","male","right","50","17","96","18","4","","","","","fixation","","","",""
"450.32499998342246","img/image_stim_f_stroop.png","70","image-keyboard-response","72","355061","0.0-9.0-1.31","q0bl2n","Sat Feb 13 2021 02:01:02 GMT+0100 (Centraleuropæisk normaltid)","2021","2","13","2","1","2","uc11","21","male","right","50","17","96","18","4","","","","","test","fear","happy","f","true"
"null","<div style=""font-size:60px;"">+</div>","null","html-keyboard-response","73","356071","0.0-9.0-0.32","q0bl2n","Sat Feb 13 2021 02:01:02 GMT+0100 (Centraleuropæisk normaltid)","2021","2","13","2","1","2","uc11","21","male","right","50","17","96","18","4","","","","","fixation","","","",""
"493.4250000223983","img/image_stim_f.png","70","image-keyboard-response","74","356567","0.0-9.0-1.32","q0bl2n","Sat Feb 13 2021 02:01:02 GMT+0100 (Centraleuropæisk normaltid)","2021","2","13","2","1","2","uc11","21","male","right","50","17","96","18","4","","","","","test","fear","fear","f","true"
"null","<div style=""font-size:60px;"">+</div>","null","html-keyboard-response","75","357828","0.0-9.0-0.33","q0bl2n","Sat Feb 13 2021 02:01:02 GMT+0100 (Centraleuropæisk normaltid)","2021","2","13","2","1","2","uc11","21","male","right","50","17","96","18","4","","","","","fixation","","","",""
"418.615000002319","img/image_stim_h.png","72","image-keyboard-response","76","358249","0.0-9.0-1.33","q0bl2n","Sat Feb 13 2021 02:01:02 GMT+0100 (Centraleuropæisk normaltid)","2021","2","13","2","1","2","uc11","21","male","right","50","17","96","18","4","","","","","test","happy","happy","h","true"
"null","<div style=""font-size:60px;"">+</div>","null","html-keyboard-response","77","359509","0.0-9.0-0.34","q0bl2n","Sat Feb 13 2021 02:01:02 GMT+0100 (Centraleuropæisk normaltid)","2021","2","13","2","1","2","uc11","21","male","right","50","17","96","18","4","","","","","fixation","","","",""
"445.91499998932704","img/image_stim_f_stroop.png","70","image-keyboard-response","78","359958","0.0-9.0-1.34","q0bl2n","Sat Feb 13 2021 02:01:02 GMT+0100 (Centraleuropæisk normaltid)","2021","2","13","2","1","2","uc11","21","male","right","50","17","96","18","4","","","","","test","fear","happy","f","true"
"null","<div style=""font-size:60px;"">+</div>","null","html-keyboard-response","79","360719","0.0-9.0-0.35","q0bl2n","Sat Feb 13 2021 02:01:02 GMT+0100 (Centraleuropæisk normaltid)","2021","2","13","2","1","2","uc11","21","male","right","50","17","96","18","4","","","","","fixation","","","",""
"655.399999988731","img/image_stim_h_stroop.png","72","image-keyboard-response","80","361377","0.0-9.0-1.35","q0bl2n","Sat Feb 13 2021 02:01:02 GMT+0100 (Centraleuropæisk normaltid)","2021","2","13","2","1","2","uc11","21","male","right","50","17","96","18","4","","","","","test","happy","fear","h","true"
