"rt","stimulus","key_press","trial_type","trial_index","time_elapsed","internal_node_id","exp_id","Time","year","month","date","hour","minute","seconds","id","age","Gender","Handedness","mood","fresh","hunger","H_since_Sleep","H_since_Eat","responses","question_order","slider_start","response","test_part","face","word","correct_response","correct"
"2728","<p>Welcome to this experiment on daily rhythms and cognition.</p><p>First you will be asked some questions about yourself.</p><p>Then a short experiment will measure your response time.</p><p>Take the test at different times of the day/night.</p><p>The test is anonymous, but comparing your data across time is important.</p><p>Therefore, please make up and remember a personal ID (two letters+ two numbers).</p><p>Use this ID whenever taking the test.</p><p><strong>Press any key to begin.</strong></p>","32","html-keyboard-response","0","2732","0.0-0.0","t4uz4n","Sat Feb 13 2021 02:00:38 GMT+0100 (CET)","2021","2","13","2","0","38","tx12","20","female","right","50","0","50","19","4","","","","","","","","",""
"17026","","","survey-text","1","19787","0.0-1.0","t4uz4n","Sat Feb 13 2021 02:00:38 GMT+0100 (CET)","2021","2","13","2","0","38","tx12","20","female","right","50","0","50","19","4","{""Q0"":""tx12""}","","","","","","","",""
"2232","","","survey-text","2","22022","0.0-2.0","t4uz4n","Sat Feb 13 2021 02:00:38 GMT+0100 (CET)","2021","2","13","2","0","38","tx12","20","female","right","50","0","50","19","4","{""Q0"":""20""}","","","","","","","",""
"3510.9999999999964","","","survey-multi-select","3","25537","0.0-3.0","t4uz4n","Sat Feb 13 2021 02:00:38 GMT+0100 (CET)","2021","2","13","2","0","38","tx12","20","female","right","50","0","50","19","4","{""Gender"":[""female""],""Hand"":[""right""]}","[0,1]","","","","","","",""
"3902","<p>How Sad/Angry or Happy are you right now?</p>","","html-slider-response","4","29444","0.0-4.0","t4uz4n","Sat Feb 13 2021 02:00:38 GMT+0100 (CET)","2021","2","13","2","0","38","tx12","20","female","right","50","0","50","19","4","","","50","50","","","","",""
"2939","<p>How Tired/Sleepy/Distracted or Fresh/Awake/Alert are you right now?</p>","","html-slider-response","5","32385","0.0-5.0","t4uz4n","Sat Feb 13 2021 02:00:38 GMT+0100 (CET)","2021","2","13","2","0","38","tx12","20","female","right","50","0","50","19","4","","","50","0","","","","",""
"3324","<p>How Hungry or Satiated are you right now?</p>","","html-slider-response","6","35711","0.0-6.0","t4uz4n","Sat Feb 13 2021 02:00:38 GMT+0100 (CET)","2021","2","13","2","0","38","tx12","20","female","right","50","0","50","19","4","","","50","50","","","","",""
"120391","","","survey-multi-select","7","156122","0.0-7.0","t4uz4n","Sat Feb 13 2021 02:00:38 GMT+0100 (CET)","2021","2","13","2","0","38","tx12","20","female","right","50","0","50","19","4","{""Sleep"":[""19""],""Eat"":[""4""]}","[0,1]","","","","","","",""
"6843","<p>In this experiment, a face and a word will appear in the center of the screen.</p><p>If the face is <strong>happy</strong>, press the letter <strong>H</strong> with <strong>right</strong> index finger.</p><p>If the face is <strong>fearful</strong>, press the letter <strong>F</strong> with <strong>left</strong> index finger.</p><p><strong>Ignore the written words</strong>. Respond as fast as possible while being correct. </p><div style='width: 900px;'><div style='float: left;'><img src='img/stimuli_stroop_happy.png'></img><p class='small'><strong>Press the H key for happy faces</strong></p></div><div class='float: right;'><img src='img/stimuli_stroop_fear.png'></img><p class='small'><strong>Press the F key for faces with fear</strong></p></div></div><p>If the screen turns blank, press <strong>SPACE</strong></p><p><strong>Press any key to begin.</strong></p>","32","html-keyboard-response","8","162974","0.0-8.0","t4uz4n","Sat Feb 13 2021 02:00:38 GMT+0100 (CET)","2021","2","13","2","0","38","tx12","20","female","right","50","0","50","19","4","","","","","","","","",""
"null","<div style=""font-size:60px;"">+</div>","null","html-keyboard-response","9","165477","0.0-9.0-0.0","t4uz4n","Sat Feb 13 2021 02:00:38 GMT+0100 (CET)","2021","2","13","2","0","38","tx12","20","female","right","50","0","50","19","4","","","","","fixation","","","",""
"839","img/image_stim_f_stroop.png","70","image-keyboard-response","10","166324","0.0-9.0-1.0","t4uz4n","Sat Feb 13 2021 02:00:38 GMT+0100 (CET)","2021","2","13","2","0","38","tx12","20","female","right","50","0","50","19","4","","","","","test","fear","happy","f","true"
"null","<div style=""font-size:60px;"">+</div>","null","html-keyboard-response","11","167081","0.0-9.0-0.1","t4uz4n","Sat Feb 13 2021 02:00:38 GMT+0100 (CET)","2021","2","13","2","0","38","tx12","20","female","right","50","0","50","19","4","","","","","fixation","","","",""
"702","img/image_stim_h.png","72","image-keyboard-response","12","167788","0.0-9.0-1.1","t4uz4n","Sat Feb 13 2021 02:00:38 GMT+0100 (CET)","2021","2","13","2","0","38","tx12","20","female","right","50","0","50","19","4","","","","","test","happy","happy","h","true"
"null","<div style=""font-size:60px;"">+</div>","null","html-keyboard-response","13","168294","0.0-9.0-0.2","t4uz4n","Sat Feb 13 2021 02:00:38 GMT+0100 (CET)","2021","2","13","2","0","38","tx12","20","female","right","50","0","50","19","4","","","","","fixation","","","",""
"569.0000000000291","img/image_stim_f.png","70","image-keyboard-response","14","168869","0.0-9.0-1.2","t4uz4n","Sat Feb 13 2021 02:00:38 GMT+0100 (CET)","2021","2","13","2","0","38","tx12","20","female","right","50","0","50","19","4","","","","","test","fear","fear","f","true"
"null","<div style=""font-size:60px;"">+</div>","null","html-keyboard-response","15","170623","0.0-9.0-0.3","t4uz4n","Sat Feb 13 2021 02:00:38 GMT+0100 (CET)","2021","2","13","2","0","38","tx12","20","female","right","50","0","50","19","4","","","","","fixation","","","",""
"860","img/image_stim_h_stroop.png","70","image-keyboard-response","16","171487","0.0-9.0-1.3","t4uz4n","Sat Feb 13 2021 02:00:38 GMT+0100 (CET)","2021","2","13","2","0","38","tx12","20","female","right","50","0","50","19","4","","","","","test","happy","fear","h","false"
"null","<div style=""font-size:60px;"">+</div>","null","html-keyboard-response","17","173491","0.0-9.0-0.4","t4uz4n","Sat Feb 13 2021 02:00:38 GMT+0100 (CET)","2021","2","13","2","0","38","tx12","20","female","right","50","0","50","19","4","","","","","fixation","","","",""
"769","img/image_stim_f_stroop.png","70","image-keyboard-response","18","174264","0.0-9.0-1.4","t4uz4n","Sat Feb 13 2021 02:00:38 GMT+0100 (CET)","2021","2","13","2","0","38","tx12","20","female","right","50","0","50","19","4","","","","","test","fear","happy","f","true"
"null","<div style=""font-size:60px;"">+</div>","null","html-keyboard-response","19","176271","0.0-9.0-0.5","t4uz4n","Sat Feb 13 2021 02:00:38 GMT+0100 (CET)","2021","2","13","2","0","38","tx12","20","female","right","50","0","50","19","4","","","","","fixation","","","",""
"573","img/image_stim_h.png","72","image-keyboard-response","20","176848","0.0-9.0-1.5","t4uz4n","Sat Feb 13 2021 02:00:38 GMT+0100 (CET)","2021","2","13","2","0","38","tx12","20","female","right","50","0","50","19","4","","","","","test","happy","happy","h","true"
"null","<div style=""font-size:60px;"">+</div>","null","html-keyboard-response","21","177853","0.0-9.0-0.6","t4uz4n","Sat Feb 13 2021 02:00:38 GMT+0100 (CET)","2021","2","13","2","0","38","tx12","20","female","right","50","0","50","19","4","","","","","fixation","","","",""
"643","img/image_stim_h_stroop.png","72","image-keyboard-response","22","178499","0.0-9.0-1.6","t4uz4n","Sat Feb 13 2021 02:00:38 GMT+0100 (CET)","2021","2","13","2","0","38","tx12","20","female","right","50","0","50","19","4","","","","","test","happy","fear","h","true"
"null","<div style=""font-size:60px;"">+</div>","null","html-keyboard-response","23","179756","0.0-9.0-0.7","t4uz4n","Sat Feb 13 2021 02:00:38 GMT+0100 (CET)","2021","2","13","2","0","38","tx12","20","female","right","50","0","50","19","4","","","","","fixation","","","",""
"651","img/image_stim_f.png","70","image-keyboard-response","24","180410","0.0-9.0-1.7","t4uz4n","Sat Feb 13 2021 02:00:38 GMT+0100 (CET)","2021","2","13","2","0","38","tx12","20","female","right","50","0","50","19","4","","","","","test","fear","fear","f","true"
"null","<div style=""font-size:60px;"">+</div>","null","html-keyboard-response","25","181166","0.0-9.0-0.8","t4uz4n","Sat Feb 13 2021 02:00:38 GMT+0100 (CET)","2021","2","13","2","0","38","tx12","20","female","right","50","0","50","19","4","","","","","fixation","","","",""
"625","img/image_stim_f.png","70","image-keyboard-response","26","181795","0.0-9.0-1.8","t4uz4n","Sat Feb 13 2021 02:00:38 GMT+0100 (CET)","2021","2","13","2","0","38","tx12","20","female","right","50","0","50","19","4","","","","","test","fear","fear","f","true"
"null","<div style=""font-size:60px;"">+</div>","null","html-keyboard-response","27","183050","0.0-9.0-0.9","t4uz4n","Sat Feb 13 2021 02:00:38 GMT+0100 (CET)","2021","2","13","2","0","38","tx12","20","female","right","50","0","50","19","4","","","","","fixation","","","",""
"589","img/image_stim_h.png","72","image-keyboard-response","28","183642","0.0-9.0-1.9","t4uz4n","Sat Feb 13 2021 02:00:38 GMT+0100 (CET)","2021","2","13","2","0","38","tx12","20","female","right","50","0","50","19","4","","","","","test","happy","happy","h","true"
"null","<div style=""font-size:60px;"">+</div>","null","html-keyboard-response","29","184649","0.0-9.0-0.10","t4uz4n","Sat Feb 13 2021 02:00:38 GMT+0100 (CET)","2021","2","13","2","0","38","tx12","20","female","right","50","0","50","19","4","","","","","fixation","","","",""
"609.0000000000291","img/image_stim_f_stroop.png","70","image-keyboard-response","30","185261","0.0-9.0-1.10","t4uz4n","Sat Feb 13 2021 02:00:38 GMT+0100 (CET)","2021","2","13","2","0","38","tx12","20","female","right","50","0","50","19","4","","","","","test","fear","happy","f","true"
"null","<div style=""font-size:60px;"">+</div>","null","html-keyboard-response","31","187269","0.0-9.0-0.11","t4uz4n","Sat Feb 13 2021 02:00:38 GMT+0100 (CET)","2021","2","13","2","0","38","tx12","20","female","right","50","0","50","19","4","","","","","fixation","","","",""
"869","img/image_stim_h_stroop.png","72","image-keyboard-response","32","188142","0.0-9.0-1.11","t4uz4n","Sat Feb 13 2021 02:00:38 GMT+0100 (CET)","2021","2","13","2","0","38","tx12","20","female","right","50","0","50","19","4","","","","","test","happy","fear","h","true"
"null","<div style=""font-size:60px;"">+</div>","null","html-keyboard-response","33","189900","0.0-9.0-0.12","t4uz4n","Sat Feb 13 2021 02:00:38 GMT+0100 (CET)","2021","2","13","2","0","38","tx12","20","female","right","50","0","50","19","4","","","","","fixation","","","",""
"740","img/image_stim_f_stroop.png","70","image-keyboard-response","34","190644","0.0-9.0-1.12","t4uz4n","Sat Feb 13 2021 02:00:38 GMT+0100 (CET)","2021","2","13","2","0","38","tx12","20","female","right","50","0","50","19","4","","","","","test","fear","happy","f","true"
"null","<div style=""font-size:60px;"">+</div>","null","html-keyboard-response","35","190901","0.0-9.0-0.13","t4uz4n","Sat Feb 13 2021 02:00:38 GMT+0100 (CET)","2021","2","13","2","0","38","tx12","20","female","right","50","0","50","19","4","","","","","fixation","","","",""
"884","img/image_stim_f.png","70","image-keyboard-response","36","191788","0.0-9.0-1.13","t4uz4n","Sat Feb 13 2021 02:00:38 GMT+0100 (CET)","2021","2","13","2","0","38","tx12","20","female","right","50","0","50","19","4","","","","","test","fear","fear","f","true"
"null","<div style=""font-size:60px;"">+</div>","null","html-keyboard-response","37","192546","0.0-9.0-0.14","t4uz4n","Sat Feb 13 2021 02:00:38 GMT+0100 (CET)","2021","2","13","2","0","38","tx12","20","female","right","50","0","50","19","4","","","","","fixation","","","",""
"692","img/image_stim_h_stroop.png","72","image-keyboard-response","38","193242","0.0-9.0-1.14","t4uz4n","Sat Feb 13 2021 02:00:38 GMT+0100 (CET)","2021","2","13","2","0","38","tx12","20","female","right","50","0","50","19","4","","","","","test","happy","fear","h","true"
"null","<div style=""font-size:60px;"">+</div>","null","html-keyboard-response","39","193749","0.0-9.0-0.15","t4uz4n","Sat Feb 13 2021 02:00:38 GMT+0100 (CET)","2021","2","13","2","0","38","tx12","20","female","right","50","0","50","19","4","","","","","fixation","","","",""
"539","img/image_stim_h.png","72","image-keyboard-response","40","194292","0.0-9.0-1.15","t4uz4n","Sat Feb 13 2021 02:00:38 GMT+0100 (CET)","2021","2","13","2","0","38","tx12","20","female","right","50","0","50","19","4","","","","","test","happy","happy","h","true"
"null","<div style=""font-size:60px;"">+</div>","null","html-keyboard-response","41","194800","0.0-9.0-0.16","t4uz4n","Sat Feb 13 2021 02:00:38 GMT+0100 (CET)","2021","2","13","2","0","38","tx12","20","female","right","50","0","50","19","4","","","","","fixation","","","",""
"626","img/image_stim_f_stroop.png","70","image-keyboard-response","42","195430","0.0-9.0-1.16","t4uz4n","Sat Feb 13 2021 02:00:38 GMT+0100 (CET)","2021","2","13","2","0","38","tx12","20","female","right","50","0","50","19","4","","","","","test","fear","happy","f","true"
"null","<div style=""font-size:60px;"">+</div>","null","html-keyboard-response","43","196937","0.0-9.0-0.17","t4uz4n","Sat Feb 13 2021 02:00:38 GMT+0100 (CET)","2021","2","13","2","0","38","tx12","20","female","right","50","0","50","19","4","","","","","fixation","","","",""
"555.9999999999709","img/image_stim_f.png","70","image-keyboard-response","44","197496","0.0-9.0-1.17","t4uz4n","Sat Feb 13 2021 02:00:38 GMT+0100 (CET)","2021","2","13","2","0","38","tx12","20","female","right","50","0","50","19","4","","","","","test","fear","fear","f","true"
"null","<div style=""font-size:60px;"">+</div>","null","html-keyboard-response","45","198003","0.0-9.0-0.18","t4uz4n","Sat Feb 13 2021 02:00:38 GMT+0100 (CET)","2021","2","13","2","0","38","tx12","20","female","right","50","0","50","19","4","","","","","fixation","","","",""
"562","img/image_stim_h.png","72","image-keyboard-response","46","198569","0.0-9.0-1.18","t4uz4n","Sat Feb 13 2021 02:00:38 GMT+0100 (CET)","2021","2","13","2","0","38","tx12","20","female","right","50","0","50","19","4","","","","","test","happy","happy","h","true"
"null","<div style=""font-size:60px;"">+</div>","null","html-keyboard-response","47","199577","0.0-9.0-0.19","t4uz4n","Sat Feb 13 2021 02:00:38 GMT+0100 (CET)","2021","2","13","2","0","38","tx12","20","female","right","50","0","50","19","4","","","","","fixation","","","",""
"463","img/image_stim_h_stroop.png","72","image-keyboard-response","48","200044","0.0-9.0-1.19","t4uz4n","Sat Feb 13 2021 02:00:38 GMT+0100 (CET)","2021","2","13","2","0","38","tx12","20","female","right","50","0","50","19","4","","","","","test","happy","fear","h","true"
"null","<div style=""font-size:60px;"">+</div>","null","html-keyboard-response","49","201549","0.0-9.0-0.20","t4uz4n","Sat Feb 13 2021 02:00:38 GMT+0100 (CET)","2021","2","13","2","0","38","tx12","20","female","right","50","0","50","19","4","","","","","fixation","","","",""
"629.9999999999709","img/image_stim_f_stroop.png","70","image-keyboard-response","50","202183","0.0-9.0-1.20","t4uz4n","Sat Feb 13 2021 02:00:38 GMT+0100 (CET)","2021","2","13","2","0","38","tx12","20","female","right","50","0","50","19","4","","","","","test","fear","happy","f","true"
"null","<div style=""font-size:60px;"">+</div>","null","html-keyboard-response","51","203692","0.0-9.0-0.21","t4uz4n","Sat Feb 13 2021 02:00:38 GMT+0100 (CET)","2021","2","13","2","0","38","tx12","20","female","right","50","0","50","19","4","","","","","fixation","","","",""
"578.9999999999709","img/image_stim_h.png","72","image-keyboard-response","52","204275","0.0-9.0-1.21","t4uz4n","Sat Feb 13 2021 02:00:38 GMT+0100 (CET)","2021","2","13","2","0","38","tx12","20","female","right","50","0","50","19","4","","","","","test","happy","happy","h","true"
"null","<div style=""font-size:60px;"">+</div>","null","html-keyboard-response","53","204536","0.0-9.0-0.22","t4uz4n","Sat Feb 13 2021 02:00:38 GMT+0100 (CET)","2021","2","13","2","0","38","tx12","20","female","right","50","0","50","19","4","","","","","fixation","","","",""
"639","img/image_stim_f.png","70","image-keyboard-response","54","205178","0.0-9.0-1.22","t4uz4n","Sat Feb 13 2021 02:00:38 GMT+0100 (CET)","2021","2","13","2","0","38","tx12","20","female","right","50","0","50","19","4","","","","","test","fear","fear","f","true"
"null","<div style=""font-size:60px;"">+</div>","null","html-keyboard-response","55","206187","0.0-9.0-0.23","t4uz4n","Sat Feb 13 2021 02:00:38 GMT+0100 (CET)","2021","2","13","2","0","38","tx12","20","female","right","50","0","50","19","4","","","","","fixation","","","",""
"1219","img/image_stim_h_stroop.png","72","image-keyboard-response","56","207411","0.0-9.0-1.23","t4uz4n","Sat Feb 13 2021 02:00:38 GMT+0100 (CET)","2021","2","13","2","0","38","tx12","20","female","right","50","0","50","19","4","","","","","test","happy","fear","h","true"
"null","<div style=""font-size:60px;"">+</div>","null","html-keyboard-response","57","208419","0.0-9.0-0.24","t4uz4n","Sat Feb 13 2021 02:00:38 GMT+0100 (CET)","2021","2","13","2","0","38","tx12","20","female","right","50","0","50","19","4","","","","","fixation","","","",""
"729","img/image_stim_h_stroop.png","72","image-keyboard-response","58","209150","0.0-9.0-1.24","t4uz4n","Sat Feb 13 2021 02:00:38 GMT+0100 (CET)","2021","2","13","2","0","38","tx12","20","female","right","50","0","50","19","4","","","","","test","happy","fear","h","true"
"null","<div style=""font-size:60px;"">+</div>","null","html-keyboard-response","59","210156","0.0-9.0-0.25","t4uz4n","Sat Feb 13 2021 02:00:38 GMT+0100 (CET)","2021","2","13","2","0","38","tx12","20","female","right","50","0","50","19","4","","","","","fixation","","","",""
"1079","img/image_stim_h.png","72","image-keyboard-response","60","211240","0.0-9.0-1.25","t4uz4n","Sat Feb 13 2021 02:00:38 GMT+0100 (CET)","2021","2","13","2","0","38","tx12","20","female","right","50","0","50","19","4","","","","","test","happy","happy","h","true"
"null","<div style=""font-size:60px;"">+</div>","null","html-keyboard-response","61","211503","0.0-9.0-0.26","t4uz4n","Sat Feb 13 2021 02:00:38 GMT+0100 (CET)","2021","2","13","2","0","38","tx12","20","female","right","50","0","50","19","4","","","","","fixation","","","",""
"714","img/image_stim_f_stroop.png","70","image-keyboard-response","62","212220","0.0-9.0-1.26","t4uz4n","Sat Feb 13 2021 02:00:38 GMT+0100 (CET)","2021","2","13","2","0","38","tx12","20","female","right","50","0","50","19","4","","","","","test","fear","happy","f","true"
"null","<div style=""font-size:60px;"">+</div>","null","html-keyboard-response","63","213225","0.0-9.0-0.27","t4uz4n","Sat Feb 13 2021 02:00:38 GMT+0100 (CET)","2021","2","13","2","0","38","tx12","20","female","right","50","0","50","19","4","","","","","fixation","","","",""
"721.0000000000291","img/image_stim_f.png","70","image-keyboard-response","64","213952","0.0-9.0-1.27","t4uz4n","Sat Feb 13 2021 02:00:38 GMT+0100 (CET)","2021","2","13","2","0","38","tx12","20","female","right","50","0","50","19","4","","","","","test","fear","fear","f","true"
"null","<div style=""font-size:60px;"">+</div>","null","html-keyboard-response","65","214710","0.0-9.0-0.28","t4uz4n","Sat Feb 13 2021 02:00:38 GMT+0100 (CET)","2021","2","13","2","0","38","tx12","20","female","right","50","0","50","19","4","","","","","fixation","","","",""
"832.9999999999709","img/image_stim_h_stroop.png","72","image-keyboard-response","66","215546","0.0-9.0-1.28","t4uz4n","Sat Feb 13 2021 02:00:38 GMT+0100 (CET)","2021","2","13","2","0","38","tx12","20","female","right","50","0","50","19","4","","","","","test","happy","fear","h","true"
"null","<div style=""font-size:60px;"">+</div>","null","html-keyboard-response","67","217054","0.0-9.0-0.29","t4uz4n","Sat Feb 13 2021 02:00:38 GMT+0100 (CET)","2021","2","13","2","0","38","tx12","20","female","right","50","0","50","19","4","","","","","fixation","","","",""
"1320","img/image_stim_f_stroop.png","70","image-keyboard-response","68","218378","0.0-9.0-1.29","t4uz4n","Sat Feb 13 2021 02:00:38 GMT+0100 (CET)","2021","2","13","2","0","38","tx12","20","female","right","50","0","50","19","4","","","","","test","fear","happy","f","true"
"null","<div style=""font-size:60px;"">+</div>","null","html-keyboard-response","69","220385","0.0-9.0-0.30","t4uz4n","Sat Feb 13 2021 02:00:38 GMT+0100 (CET)","2021","2","13","2","0","38","tx12","20","female","right","50","0","50","19","4","","","","","fixation","","","",""
"662","img/image_stim_h.png","72","image-keyboard-response","70","221050","0.0-9.0-1.30","t4uz4n","Sat Feb 13 2021 02:00:38 GMT+0100 (CET)","2021","2","13","2","0","38","tx12","20","female","right","50","0","50","19","4","","","","","test","happy","happy","h","true"
"null","<div style=""font-size:60px;"">+</div>","null","html-keyboard-response","71","221808","0.0-9.0-0.31","t4uz4n","Sat Feb 13 2021 02:00:38 GMT+0100 (CET)","2021","2","13","2","0","38","tx12","20","female","right","50","0","50","19","4","","","","","fixation","","","",""
"694.0000000000291","img/image_stim_f.png","70","image-keyboard-response","72","222506","0.0-9.0-1.31","t4uz4n","Sat Feb 13 2021 02:00:38 GMT+0100 (CET)","2021","2","13","2","0","38","tx12","20","female","right","50","0","50","19","4","","","","","test","fear","fear","f","true"
"null","<div style=""font-size:60px;"">+</div>","null","html-keyboard-response","73","224514","0.0-9.0-0.32","t4uz4n","Sat Feb 13 2021 02:00:38 GMT+0100 (CET)","2021","2","13","2","0","38","tx12","20","female","right","50","0","50","19","4","","","","","fixation","","","",""
"1014.9999999999709","img/image_stim_h.png","72","image-keyboard-response","74","225532","0.0-9.0-1.32","t4uz4n","Sat Feb 13 2021 02:00:38 GMT+0100 (CET)","2021","2","13","2","0","38","tx12","20","female","right","50","0","50","19","4","","","","","test","happy","happy","h","true"
"null","<div style=""font-size:60px;"">+</div>","null","html-keyboard-response","75","227291","0.0-9.0-0.33","t4uz4n","Sat Feb 13 2021 02:00:38 GMT+0100 (CET)","2021","2","13","2","0","38","tx12","20","female","right","50","0","50","19","4","","","","","fixation","","","",""
"668","img/image_stim_f.png","70","image-keyboard-response","76","227962","0.0-9.0-1.33","t4uz4n","Sat Feb 13 2021 02:00:38 GMT+0100 (CET)","2021","2","13","2","0","38","tx12","20","female","right","50","0","50","19","4","","","","","test","fear","fear","f","true"
"null","<div style=""font-size:60px;"">+</div>","null","html-keyboard-response","77","228718","0.0-9.0-0.34","t4uz4n","Sat Feb 13 2021 02:00:38 GMT+0100 (CET)","2021","2","13","2","0","38","tx12","20","female","right","50","0","50","19","4","","","","","fixation","","","",""
"1024","img/image_stim_h_stroop.png","70","image-keyboard-response","78","229746","0.0-9.0-1.34","t4uz4n","Sat Feb 13 2021 02:00:38 GMT+0100 (CET)","2021","2","13","2","0","38","tx12","20","female","right","50","0","50","19","4","","","","","test","happy","fear","h","false"
"null","<div style=""font-size:60px;"">+</div>","null","html-keyboard-response","79","231253","0.0-9.0-0.35","t4uz4n","Sat Feb 13 2021 02:00:38 GMT+0100 (CET)","2021","2","13","2","0","38","tx12","20","female","right","50","0","50","19","4","","","","","fixation","","","",""
"832.0000000000291","img/image_stim_f_stroop.png","70","image-keyboard-response","80","232089","0.0-9.0-1.35","t4uz4n","Sat Feb 13 2021 02:00:38 GMT+0100 (CET)","2021","2","13","2","0","38","tx12","20","female","right","50","0","50","19","4","","","","","test","fear","happy","f","true"
