"rt","stimulus","key_press","trial_type","trial_index","time_elapsed","internal_node_id","exp_id","Time","year","month","date","hour","minute","seconds","id","age","Gender","Handedness","mood","fresh","hunger","H_since_Sleep","H_since_Eat","responses","question_order","slider_start","response","test_part","face","word","correct_response","correct"
"2841","<p>Welcome to this experiment on daily rhythms and cognition.</p><p>First you will be asked some questions about yourself.</p><p>Then a short experiment will measure your response time.</p><p>Take the test at different times of the day/night.</p><p>The test is anonymous, but comparing your data across time is important.</p><p>Therefore, please make up and remember a personal ID (two letters+ two numbers).</p><p>Use this ID whenever taking the test.</p><p><strong>Press any key to begin.</strong></p>","32","html-keyboard-response","0","2844","0.0-0.0","sz5glk","Thu Feb 18 2021 00:47:48 GMT+0100 (CET)","2021","2","18","0","47","48","s123","22","female","right","69","33","96","18","4","","","","","","","","",""
"2564","","","survey-text","1","5438","0.0-1.0","sz5glk","Thu Feb 18 2021 00:47:48 GMT+0100 (CET)","2021","2","18","0","47","48","s123","22","female","right","69","33","96","18","4","{""Q0"":""s123""}","","","","","","","",""
"1384","","","survey-text","2","6829","0.0-2.0","sz5glk","Thu Feb 18 2021 00:47:48 GMT+0100 (CET)","2021","2","18","0","47","48","s123","22","female","right","69","33","96","18","4","{""Q0"":""22""}","","","","","","","",""
"3741","","","survey-multi-select","3","10576","0.0-3.0","sz5glk","Thu Feb 18 2021 00:47:48 GMT+0100 (CET)","2021","2","18","0","47","48","s123","22","female","right","69","33","96","18","4","{""Gender"":[""female""],""Hand"":[""right""]}","[0,1]","","","","","","",""
"2932.000000000002","<p>How Sad/Angry or Happy are you right now?</p>","","html-slider-response","4","13511","0.0-4.0","sz5glk","Thu Feb 18 2021 00:47:48 GMT+0100 (CET)","2021","2","18","0","47","48","s123","22","female","right","69","33","96","18","4","","","50","69","","","","",""
"17814","<p>How Tired/Sleepy/Distracted or Fresh/Awake/Alert are you right now?</p>","","html-slider-response","5","31327","0.0-5.0","sz5glk","Thu Feb 18 2021 00:47:48 GMT+0100 (CET)","2021","2","18","0","47","48","s123","22","female","right","69","33","96","18","4","","","50","33","","","","",""
"9455","<p>How Hungry or Satiated are you right now?</p>","","html-slider-response","6","40787","0.0-6.0","sz5glk","Thu Feb 18 2021 00:47:48 GMT+0100 (CET)","2021","2","18","0","47","48","s123","22","female","right","69","33","96","18","4","","","50","96","","","","",""
"38331","","","survey-multi-select","7","79139","0.0-7.0","sz5glk","Thu Feb 18 2021 00:47:48 GMT+0100 (CET)","2021","2","18","0","47","48","s123","22","female","right","69","33","96","18","4","{""Sleep"":[""18""],""Eat"":[""4""]}","[0,1]","","","","","","",""
"4184","<p>In this experiment, a face and a word will appear in the center of the screen.</p><p>If the face is <strong>happy</strong>, press the letter <strong>H</strong> with <strong>right</strong> index finger.</p><p>If the face is <strong>fearful</strong>, press the letter <strong>F</strong> with <strong>left</strong> index finger.</p><p><strong>Ignore the written words</strong>. Respond as fast as possible while being correct. </p><div style='width: 900px;'><div style='float: left;'><img src='img/stimuli_stroop_happy.png'></img><p class='small'><strong>Press the H key for happy faces</strong></p></div><div class='float: right;'><img src='img/stimuli_stroop_fear.png'></img><p class='small'><strong>Press the F key for faces with fear</strong></p></div></div><p>If the screen turns blank, press <strong>SPACE</strong></p><p><strong>Press any key to begin.</strong></p>","32","html-keyboard-response","8","83326","0.0-8.0","sz5glk","Thu Feb 18 2021 00:47:48 GMT+0100 (CET)","2021","2","18","0","47","48","s123","22","female","right","69","33","96","18","4","","","","","","","","",""
"null","<div style=""font-size:60px;"">+</div>","null","html-keyboard-response","9","86830","0.0-9.0-0.0","sz5glk","Thu Feb 18 2021 00:47:48 GMT+0100 (CET)","2021","2","18","0","47","48","s123","22","female","right","69","33","96","18","4","","","","","fixation","","","",""
"665","img/image_stim_f.png","70","image-keyboard-response","10","87503","0.0-9.0-1.0","sz5glk","Thu Feb 18 2021 00:47:48 GMT+0100 (CET)","2021","2","18","0","47","48","s123","22","female","right","69","33","96","18","4","","","","","test","fear","fear","f","true"
"null","<div style=""font-size:60px;"">+</div>","null","html-keyboard-response","11","89008","0.0-9.0-0.1","sz5glk","Thu Feb 18 2021 00:47:48 GMT+0100 (CET)","2021","2","18","0","47","48","s123","22","female","right","69","33","96","18","4","","","","","fixation","","","",""
"636","img/image_stim_h_stroop.png","72","image-keyboard-response","12","89646","0.0-9.0-1.1","sz5glk","Thu Feb 18 2021 00:47:48 GMT+0100 (CET)","2021","2","18","0","47","48","s123","22","female","right","69","33","96","18","4","","","","","test","happy","fear","h","true"
"null","<div style=""font-size:60px;"">+</div>","null","html-keyboard-response","13","89900","0.0-9.0-0.2","sz5glk","Thu Feb 18 2021 00:47:48 GMT+0100 (CET)","2021","2","18","0","47","48","s123","22","female","right","69","33","96","18","4","","","","","fixation","","","",""
"477","img/image_stim_h.png","72","image-keyboard-response","14","90380","0.0-9.0-1.2","sz5glk","Thu Feb 18 2021 00:47:48 GMT+0100 (CET)","2021","2","18","0","47","48","s123","22","female","right","69","33","96","18","4","","","","","test","happy","happy","h","true"
"null","<div style=""font-size:60px;"">+</div>","null","html-keyboard-response","15","92384","0.0-9.0-0.3","sz5glk","Thu Feb 18 2021 00:47:48 GMT+0100 (CET)","2021","2","18","0","47","48","s123","22","female","right","69","33","96","18","4","","","","","fixation","","","",""
"629","img/image_stim_f_stroop.png","70","image-keyboard-response","16","93015","0.0-9.0-1.3","sz5glk","Thu Feb 18 2021 00:47:48 GMT+0100 (CET)","2021","2","18","0","47","48","s123","22","female","right","69","33","96","18","4","","","","","test","fear","happy","f","true"
"null","<div style=""font-size:60px;"">+</div>","null","html-keyboard-response","17","94520","0.0-9.0-0.4","sz5glk","Thu Feb 18 2021 00:47:48 GMT+0100 (CET)","2021","2","18","0","47","48","s123","22","female","right","69","33","96","18","4","","","","","fixation","","","",""
"856","img/image_stim_f.png","70","image-keyboard-response","18","95379","0.0-9.0-1.4","sz5glk","Thu Feb 18 2021 00:47:48 GMT+0100 (CET)","2021","2","18","0","47","48","s123","22","female","right","69","33","96","18","4","","","","","test","fear","fear","f","true"
"null","<div style=""font-size:60px;"">+</div>","null","html-keyboard-response","19","95883","0.0-9.0-0.5","sz5glk","Thu Feb 18 2021 00:47:48 GMT+0100 (CET)","2021","2","18","0","47","48","s123","22","female","right","69","33","96","18","4","","","","","fixation","","","",""
"683","img/image_stim_h_stroop.png","72","image-keyboard-response","20","96567","0.0-9.0-1.5","sz5glk","Thu Feb 18 2021 00:47:48 GMT+0100 (CET)","2021","2","18","0","47","48","s123","22","female","right","69","33","96","18","4","","","","","test","happy","fear","h","true"
"null","<div style=""font-size:60px;"">+</div>","null","html-keyboard-response","21","98571","0.0-9.0-0.6","sz5glk","Thu Feb 18 2021 00:47:48 GMT+0100 (CET)","2021","2","18","0","47","48","s123","22","female","right","69","33","96","18","4","","","","","fixation","","","",""
"689","img/image_stim_h.png","72","image-keyboard-response","22","99263","0.0-9.0-1.6","sz5glk","Thu Feb 18 2021 00:47:48 GMT+0100 (CET)","2021","2","18","0","47","48","s123","22","female","right","69","33","96","18","4","","","","","test","happy","happy","h","true"
"null","<div style=""font-size:60px;"">+</div>","null","html-keyboard-response","23","101017","0.0-9.0-0.7","sz5glk","Thu Feb 18 2021 00:47:48 GMT+0100 (CET)","2021","2","18","0","47","48","s123","22","female","right","69","33","96","18","4","","","","","fixation","","","",""
"620","img/image_stim_f_stroop.png","70","image-keyboard-response","24","101641","0.0-9.0-1.7","sz5glk","Thu Feb 18 2021 00:47:48 GMT+0100 (CET)","2021","2","18","0","47","48","s123","22","female","right","69","33","96","18","4","","","","","test","fear","happy","f","true"
"null","<div style=""font-size:60px;"">+</div>","null","html-keyboard-response","25","103145","0.0-9.0-0.8","sz5glk","Thu Feb 18 2021 00:47:48 GMT+0100 (CET)","2021","2","18","0","47","48","s123","22","female","right","69","33","96","18","4","","","","","fixation","","","",""
"634","img/image_stim_h.png","72","image-keyboard-response","26","103782","0.0-9.0-1.8","sz5glk","Thu Feb 18 2021 00:47:48 GMT+0100 (CET)","2021","2","18","0","47","48","s123","22","female","right","69","33","96","18","4","","","","","test","happy","happy","h","true"
"null","<div style=""font-size:60px;"">+</div>","null","html-keyboard-response","27","105537","0.0-9.0-0.9","sz5glk","Thu Feb 18 2021 00:47:48 GMT+0100 (CET)","2021","2","18","0","47","48","s123","22","female","right","69","33","96","18","4","","","","","fixation","","","",""
"663","img/image_stim_f.png","70","image-keyboard-response","28","106201","0.0-9.0-1.9","sz5glk","Thu Feb 18 2021 00:47:48 GMT+0100 (CET)","2021","2","18","0","47","48","s123","22","female","right","69","33","96","18","4","","","","","test","fear","fear","f","true"
"null","<div style=""font-size:60px;"">+</div>","null","html-keyboard-response","29","106706","0.0-9.0-0.10","sz5glk","Thu Feb 18 2021 00:47:48 GMT+0100 (CET)","2021","2","18","0","47","48","s123","22","female","right","69","33","96","18","4","","","","","fixation","","","",""
"854.9999999999854","img/image_stim_h_stroop.png","70","image-keyboard-response","30","107565","0.0-9.0-1.10","sz5glk","Thu Feb 18 2021 00:47:48 GMT+0100 (CET)","2021","2","18","0","47","48","s123","22","female","right","69","33","96","18","4","","","","","test","happy","fear","h","false"
"null","<div style=""font-size:60px;"">+</div>","null","html-keyboard-response","31","108319","0.0-9.0-0.11","sz5glk","Thu Feb 18 2021 00:47:48 GMT+0100 (CET)","2021","2","18","0","47","48","s123","22","female","right","69","33","96","18","4","","","","","fixation","","","",""
"812","img/image_stim_f_stroop.png","70","image-keyboard-response","32","109133","0.0-9.0-1.11","sz5glk","Thu Feb 18 2021 00:47:48 GMT+0100 (CET)","2021","2","18","0","47","48","s123","22","female","right","69","33","96","18","4","","","","","test","fear","happy","f","true"
"null","<div style=""font-size:60px;"">+</div>","null","html-keyboard-response","33","111137","0.0-9.0-0.12","sz5glk","Thu Feb 18 2021 00:47:48 GMT+0100 (CET)","2021","2","18","0","47","48","s123","22","female","right","69","33","96","18","4","","","","","fixation","","","",""
"661","img/image_stim_f_stroop.png","70","image-keyboard-response","34","111801","0.0-9.0-1.12","sz5glk","Thu Feb 18 2021 00:47:48 GMT+0100 (CET)","2021","2","18","0","47","48","s123","22","female","right","69","33","96","18","4","","","","","test","fear","happy","f","true"
"null","<div style=""font-size:60px;"">+</div>","null","html-keyboard-response","35","113056","0.0-9.0-0.13","sz5glk","Thu Feb 18 2021 00:47:48 GMT+0100 (CET)","2021","2","18","0","47","48","s123","22","female","right","69","33","96","18","4","","","","","fixation","","","",""
"650","img/image_stim_h.png","72","image-keyboard-response","36","113708","0.0-9.0-1.13","sz5glk","Thu Feb 18 2021 00:47:48 GMT+0100 (CET)","2021","2","18","0","47","48","s123","22","female","right","69","33","96","18","4","","","","","test","happy","happy","h","true"
"null","<div style=""font-size:60px;"">+</div>","null","html-keyboard-response","37","113962","0.0-9.0-0.14","sz5glk","Thu Feb 18 2021 00:47:48 GMT+0100 (CET)","2021","2","18","0","47","48","s123","22","female","right","69","33","96","18","4","","","","","fixation","","","",""
"756","img/image_stim_h_stroop.png","72","image-keyboard-response","38","114720","0.0-9.0-1.14","sz5glk","Thu Feb 18 2021 00:47:48 GMT+0100 (CET)","2021","2","18","0","47","48","s123","22","female","right","69","33","96","18","4","","","","","test","happy","fear","h","true"
"null","<div style=""font-size:60px;"">+</div>","null","html-keyboard-response","39","115724","0.0-9.0-0.15","sz5glk","Thu Feb 18 2021 00:47:48 GMT+0100 (CET)","2021","2","18","0","47","48","s123","22","female","right","69","33","96","18","4","","","","","fixation","","","",""
"640","img/image_stim_f.png","70","image-keyboard-response","40","116366","0.0-9.0-1.15","sz5glk","Thu Feb 18 2021 00:47:48 GMT+0100 (CET)","2021","2","18","0","47","48","s123","22","female","right","69","33","96","18","4","","","","","test","fear","fear","f","true"
"null","<div style=""font-size:60px;"">+</div>","null","html-keyboard-response","41","116870","0.0-9.0-0.16","sz5glk","Thu Feb 18 2021 00:47:48 GMT+0100 (CET)","2021","2","18","0","47","48","s123","22","female","right","69","33","96","18","4","","","","","fixation","","","",""
"1298","img/image_stim_f.png","70","image-keyboard-response","42","118170","0.0-9.0-1.16","sz5glk","Thu Feb 18 2021 00:47:48 GMT+0100 (CET)","2021","2","18","0","47","48","s123","22","female","right","69","33","96","18","4","","","","","test","fear","fear","f","true"
"null","<div style=""font-size:60px;"">+</div>","null","html-keyboard-response","43","119175","0.0-9.0-0.17","sz5glk","Thu Feb 18 2021 00:47:48 GMT+0100 (CET)","2021","2","18","0","47","48","s123","22","female","right","69","33","96","18","4","","","","","fixation","","","",""
"643","img/image_stim_h_stroop.png","72","image-keyboard-response","44","119820","0.0-9.0-1.17","sz5glk","Thu Feb 18 2021 00:47:48 GMT+0100 (CET)","2021","2","18","0","47","48","s123","22","female","right","69","33","96","18","4","","","","","test","happy","fear","h","true"
"null","<div style=""font-size:60px;"">+</div>","null","html-keyboard-response","45","120073","0.0-9.0-0.18","sz5glk","Thu Feb 18 2021 00:47:48 GMT+0100 (CET)","2021","2","18","0","47","48","s123","22","female","right","69","33","96","18","4","","","","","fixation","","","",""
"1393","img/image_stim_h.png","72","image-keyboard-response","46","121468","0.0-9.0-1.18","sz5glk","Thu Feb 18 2021 00:47:48 GMT+0100 (CET)","2021","2","18","0","47","48","s123","22","female","right","69","33","96","18","4","","","","","test","happy","happy","h","true"
"null","<div style=""font-size:60px;"">+</div>","null","html-keyboard-response","47","122973","0.0-9.0-0.19","sz5glk","Thu Feb 18 2021 00:47:48 GMT+0100 (CET)","2021","2","18","0","47","48","s123","22","female","right","69","33","96","18","4","","","","","fixation","","","",""
"707.0000000000146","img/image_stim_f_stroop.png","70","image-keyboard-response","48","123682","0.0-9.0-1.19","sz5glk","Thu Feb 18 2021 00:47:48 GMT+0100 (CET)","2021","2","18","0","47","48","s123","22","female","right","69","33","96","18","4","","","","","test","fear","happy","f","true"
"null","<div style=""font-size:60px;"">+</div>","null","html-keyboard-response","49","125688","0.0-9.0-0.20","sz5glk","Thu Feb 18 2021 00:47:48 GMT+0100 (CET)","2021","2","18","0","47","48","s123","22","female","right","69","33","96","18","4","","","","","fixation","","","",""
"794","img/image_stim_h_stroop.png","72","image-keyboard-response","50","126484","0.0-9.0-1.20","sz5glk","Thu Feb 18 2021 00:47:48 GMT+0100 (CET)","2021","2","18","0","47","48","s123","22","female","right","69","33","96","18","4","","","","","test","happy","fear","h","true"
"null","<div style=""font-size:60px;"">+</div>","null","html-keyboard-response","51","127740","0.0-9.0-0.21","sz5glk","Thu Feb 18 2021 00:47:48 GMT+0100 (CET)","2021","2","18","0","47","48","s123","22","female","right","69","33","96","18","4","","","","","fixation","","","",""
"604","img/image_stim_h.png","72","image-keyboard-response","52","128346","0.0-9.0-1.21","sz5glk","Thu Feb 18 2021 00:47:48 GMT+0100 (CET)","2021","2","18","0","47","48","s123","22","female","right","69","33","96","18","4","","","","","test","happy","happy","h","true"
"null","<div style=""font-size:60px;"">+</div>","null","html-keyboard-response","53","129602","0.0-9.0-0.22","sz5glk","Thu Feb 18 2021 00:47:48 GMT+0100 (CET)","2021","2","18","0","47","48","s123","22","female","right","69","33","96","18","4","","","","","fixation","","","",""
"692.9999999999854","img/image_stim_f_stroop.png","70","image-keyboard-response","54","130296","0.0-9.0-1.22","sz5glk","Thu Feb 18 2021 00:47:48 GMT+0100 (CET)","2021","2","18","0","47","48","s123","22","female","right","69","33","96","18","4","","","","","test","fear","happy","f","true"
"null","<div style=""font-size:60px;"">+</div>","null","html-keyboard-response","55","130801","0.0-9.0-0.23","sz5glk","Thu Feb 18 2021 00:47:48 GMT+0100 (CET)","2021","2","18","0","47","48","s123","22","female","right","69","33","96","18","4","","","","","fixation","","","",""
"594","img/image_stim_f.png","70","image-keyboard-response","56","131397","0.0-9.0-1.23","sz5glk","Thu Feb 18 2021 00:47:48 GMT+0100 (CET)","2021","2","18","0","47","48","s123","22","female","right","69","33","96","18","4","","","","","test","fear","fear","f","true"
"null","<div style=""font-size:60px;"">+</div>","null","html-keyboard-response","57","132653","0.0-9.0-0.24","sz5glk","Thu Feb 18 2021 00:47:48 GMT+0100 (CET)","2021","2","18","0","47","48","s123","22","female","right","69","33","96","18","4","","","","","fixation","","","",""
"689","img/image_stim_h.png","72","image-keyboard-response","58","133343","0.0-9.0-1.24","sz5glk","Thu Feb 18 2021 00:47:48 GMT+0100 (CET)","2021","2","18","0","47","48","s123","22","female","right","69","33","96","18","4","","","","","test","happy","happy","h","true"
"null","<div style=""font-size:60px;"">+</div>","null","html-keyboard-response","59","135348","0.0-9.0-0.25","sz5glk","Thu Feb 18 2021 00:47:48 GMT+0100 (CET)","2021","2","18","0","47","48","s123","22","female","right","69","33","96","18","4","","","","","fixation","","","",""
"1007","img/image_stim_f.png","70","image-keyboard-response","60","136358","0.0-9.0-1.25","sz5glk","Thu Feb 18 2021 00:47:48 GMT+0100 (CET)","2021","2","18","0","47","48","s123","22","female","right","69","33","96","18","4","","","","","test","fear","fear","f","true"
"null","<div style=""font-size:60px;"">+</div>","null","html-keyboard-response","61","137363","0.0-9.0-0.26","sz5glk","Thu Feb 18 2021 00:47:48 GMT+0100 (CET)","2021","2","18","0","47","48","s123","22","female","right","69","33","96","18","4","","","","","fixation","","","",""
"735","img/image_stim_f_stroop.png","70","image-keyboard-response","62","138101","0.0-9.0-1.26","sz5glk","Thu Feb 18 2021 00:47:48 GMT+0100 (CET)","2021","2","18","0","47","48","s123","22","female","right","69","33","96","18","4","","","","","test","fear","happy","f","true"
"null","<div style=""font-size:60px;"">+</div>","null","html-keyboard-response","63","139606","0.0-9.0-0.27","sz5glk","Thu Feb 18 2021 00:47:48 GMT+0100 (CET)","2021","2","18","0","47","48","s123","22","female","right","69","33","96","18","4","","","","","fixation","","","",""
"744","img/image_stim_h_stroop.png","72","image-keyboard-response","64","140353","0.0-9.0-1.27","sz5glk","Thu Feb 18 2021 00:47:48 GMT+0100 (CET)","2021","2","18","0","47","48","s123","22","female","right","69","33","96","18","4","","","","","test","happy","fear","h","true"
"null","<div style=""font-size:60px;"">+</div>","null","html-keyboard-response","65","141858","0.0-9.0-0.28","sz5glk","Thu Feb 18 2021 00:47:48 GMT+0100 (CET)","2021","2","18","0","47","48","s123","22","female","right","69","33","96","18","4","","","","","fixation","","","",""
"676","img/image_stim_h.png","72","image-keyboard-response","66","142537","0.0-9.0-1.28","sz5glk","Thu Feb 18 2021 00:47:48 GMT+0100 (CET)","2021","2","18","0","47","48","s123","22","female","right","69","33","96","18","4","","","","","test","happy","happy","h","true"
"null","<div style=""font-size:60px;"">+</div>","null","html-keyboard-response","67","143543","0.0-9.0-0.29","sz5glk","Thu Feb 18 2021 00:47:48 GMT+0100 (CET)","2021","2","18","0","47","48","s123","22","female","right","69","33","96","18","4","","","","","fixation","","","",""
"717.9999999999709","img/image_stim_f.png","70","image-keyboard-response","68","144263","0.0-9.0-1.29","sz5glk","Thu Feb 18 2021 00:47:48 GMT+0100 (CET)","2021","2","18","0","47","48","s123","22","female","right","69","33","96","18","4","","","","","test","fear","fear","f","true"
"null","<div style=""font-size:60px;"">+</div>","null","html-keyboard-response","69","145018","0.0-9.0-0.30","sz5glk","Thu Feb 18 2021 00:47:48 GMT+0100 (CET)","2021","2","18","0","47","48","s123","22","female","right","69","33","96","18","4","","","","","fixation","","","",""
"769.9999999999709","img/image_stim_h_stroop.png","72","image-keyboard-response","70","145790","0.0-9.0-1.30","sz5glk","Thu Feb 18 2021 00:47:48 GMT+0100 (CET)","2021","2","18","0","47","48","s123","22","female","right","69","33","96","18","4","","","","","test","happy","fear","h","true"
"null","<div style=""font-size:60px;"">+</div>","null","html-keyboard-response","71","146296","0.0-9.0-0.31","sz5glk","Thu Feb 18 2021 00:47:48 GMT+0100 (CET)","2021","2","18","0","47","48","s123","22","female","right","69","33","96","18","4","","","","","fixation","","","",""
"745","img/image_stim_f_stroop.png","70","image-keyboard-response","72","147043","0.0-9.0-1.31","sz5glk","Thu Feb 18 2021 00:47:48 GMT+0100 (CET)","2021","2","18","0","47","48","s123","22","female","right","69","33","96","18","4","","","","","test","fear","happy","f","true"
"null","<div style=""font-size:60px;"">+</div>","null","html-keyboard-response","73","148799","0.0-9.0-0.32","sz5glk","Thu Feb 18 2021 00:47:48 GMT+0100 (CET)","2021","2","18","0","47","48","s123","22","female","right","69","33","96","18","4","","","","","fixation","","","",""
"739.9999999999709","img/image_stim_h.png","72","image-keyboard-response","74","149541","0.0-9.0-1.32","sz5glk","Thu Feb 18 2021 00:47:48 GMT+0100 (CET)","2021","2","18","0","47","48","s123","22","female","right","69","33","96","18","4","","","","","test","happy","happy","h","true"
"null","<div style=""font-size:60px;"">+</div>","null","html-keyboard-response","75","150547","0.0-9.0-0.33","sz5glk","Thu Feb 18 2021 00:47:48 GMT+0100 (CET)","2021","2","18","0","47","48","s123","22","female","right","69","33","96","18","4","","","","","fixation","","","",""
"782","img/image_stim_h_stroop.png","72","image-keyboard-response","76","151331","0.0-9.0-1.33","sz5glk","Thu Feb 18 2021 00:47:48 GMT+0100 (CET)","2021","2","18","0","47","48","s123","22","female","right","69","33","96","18","4","","","","","test","happy","fear","h","true"
"null","<div style=""font-size:60px;"">+</div>","null","html-keyboard-response","77","151587","0.0-9.0-0.34","sz5glk","Thu Feb 18 2021 00:47:48 GMT+0100 (CET)","2021","2","18","0","47","48","s123","22","female","right","69","33","96","18","4","","","","","fixation","","","",""
"662","img/image_stim_f.png","70","image-keyboard-response","78","152251","0.0-9.0-1.34","sz5glk","Thu Feb 18 2021 00:47:48 GMT+0100 (CET)","2021","2","18","0","47","48","s123","22","female","right","69","33","96","18","4","","","","","test","fear","fear","f","true"
"null","<div style=""font-size:60px;"">+</div>","null","html-keyboard-response","79","154007","0.0-9.0-0.35","sz5glk","Thu Feb 18 2021 00:47:48 GMT+0100 (CET)","2021","2","18","0","47","48","s123","22","female","right","69","33","96","18","4","","","","","fixation","","","",""
"664.9999999999709","img/image_stim_f_stroop.png","70","image-keyboard-response","80","154675","0.0-9.0-1.35","sz5glk","Thu Feb 18 2021 00:47:48 GMT+0100 (CET)","2021","2","18","0","47","48","s123","22","female","right","69","33","96","18","4","","","","","test","fear","happy","f","true"
