"rt","stimulus","key_press","trial_type","trial_index","time_elapsed","internal_node_id","exp_id","Time","year","month","date","hour","minute","seconds","id","age","Gender","Handedness","mood","fresh","hunger","H_since_Sleep","H_since_Eat","responses","question_order","slider_start","response","test_part","face","word","correct_response","correct"
"18311.415000000125","<p>Welcome to this experiment on daily rhythms and cognition.</p><p>First you will be asked some questions about yourself.</p><p>Then a short experiment will measure your response time.</p><p>Take the test at different times of the day/night.</p><p>The test is anonymous, but comparing your data across time is important.</p><p>Therefore, please make up and remember a personal ID (two letters+ two numbers).</p><p>Use this ID whenever taking the test.</p><p><strong>Press any key to begin.</strong></p>","32","html-keyboard-response","0","18314","0.0-0.0","2uunga","Thu Feb 11 2021 15:52:45 GMT+0100 (Central European Standard Time)","2021","2","11","15","52","45","HK45","30","female","right","59","24","62","7","3","","","","","","","","",""
"6558.69999999959","","","survey-text","1","24880","0.0-1.0","2uunga","Thu Feb 11 2021 15:52:45 GMT+0100 (Central European Standard Time)","2021","2","11","15","52","45","HK45","30","female","right","59","24","62","7","3","{""Q0"":""HK45""}","","","","","","","",""
"3904.0100000001985","","","survey-text","2","28789","0.0-2.0","2uunga","Thu Feb 11 2021 15:52:45 GMT+0100 (Central European Standard Time)","2021","2","11","15","52","45","HK45","30","female","right","59","24","62","7","3","{""Q0"":""30""}","","","","","","","",""
"3396.45500000006","","","survey-multi-select","3","32192","0.0-3.0","2uunga","Thu Feb 11 2021 15:52:45 GMT+0100 (Central European Standard Time)","2021","2","11","15","52","45","HK45","30","female","right","59","24","62","7","3","{""Gender"":[""female""],""Hand"":[""right""]}","[0,1]","","","","","","",""
"5875.215000000026","<p>How Sad/Angry or Happy are you right now?</p>","","html-slider-response","4","38076","0.0-4.0","2uunga","Thu Feb 11 2021 15:52:45 GMT+0100 (Central European Standard Time)","2021","2","11","15","52","45","HK45","30","female","right","59","24","62","7","3","","","50","59","","","","",""
"5184.645000001183","<p>How Tired/Sleepy/Distracted or Fresh/Awake/Alert are you right now?</p>","","html-slider-response","5","43263","0.0-5.0","2uunga","Thu Feb 11 2021 15:52:45 GMT+0100 (Central European Standard Time)","2021","2","11","15","52","45","HK45","30","female","right","59","24","62","7","3","","","50","24","","","","",""
"3591.145000000324","<p>How Hungry or Satiated are you right now?</p>","","html-slider-response","6","46856","0.0-6.0","2uunga","Thu Feb 11 2021 15:52:45 GMT+0100 (Central European Standard Time)","2021","2","11","15","52","45","HK45","30","female","right","59","24","62","7","3","","","50","62","","","","",""
"35589.21499999997","","","survey-multi-select","7","82473","0.0-7.0","2uunga","Thu Feb 11 2021 15:52:45 GMT+0100 (Central European Standard Time)","2021","2","11","15","52","45","HK45","30","female","right","59","24","62","7","3","{""Sleep"":[""7""],""Eat"":[""3""]}","[0,1]","","","","","","",""
"26671.935000000303","<p>In this experiment, a face and a word will appear in the center of the screen.</p><p>If the face is <strong>happy</strong>, press the letter <strong>H</strong> with <strong>right</strong> index finger.</p><p>If the face is <strong>fearful</strong>, press the letter <strong>F</strong> with <strong>left</strong> index finger.</p><p><strong>Ignore the written words</strong>. Respond as fast as possible while being correct. </p><div style='width: 900px;'><div style='float: left;'><img src='img/stimuli_stroop_happy.png'></img><p class='small'><strong>Press the H key for happy faces</strong></p></div><div class='float: right;'><img src='img/stimuli_stroop_fear.png'></img><p class='small'><strong>Press the F key for faces with fear</strong></p></div></div><p>If the screen turns blank, press <strong>SPACE</strong></p><p><strong>Press any key to begin.</strong></p>","32","html-keyboard-response","8","109151","0.0-8.0","2uunga","Thu Feb 11 2021 15:52:45 GMT+0100 (Central European Standard Time)","2021","2","11","15","52","45","HK45","30","female","right","59","24","62","7","3","","","","","","","","",""
"null","<div style=""font-size:60px;"">+</div>","null","html-keyboard-response","9","112415","0.0-9.0-0.0","2uunga","Thu Feb 11 2021 15:52:45 GMT+0100 (Central European Standard Time)","2021","2","11","15","52","45","HK45","30","female","right","59","24","62","7","3","","","","","fixation","","","",""
"1768.4250000002066","img/image_stim_f.png","70","image-keyboard-response","10","114191","0.0-9.0-1.0","2uunga","Thu Feb 11 2021 15:52:45 GMT+0100 (Central European Standard Time)","2021","2","11","15","52","45","HK45","30","female","right","59","24","62","7","3","","","","","test","fear","fear","f","true"
"null","<div style=""font-size:60px;"">+</div>","null","html-keyboard-response","11","116201","0.0-9.0-0.1","2uunga","Thu Feb 11 2021 15:52:45 GMT+0100 (Central European Standard Time)","2021","2","11","15","52","45","HK45","30","female","right","59","24","62","7","3","","","","","fixation","","","",""
"747.3899999986315","img/image_stim_h.png","72","image-keyboard-response","12","116951","0.0-9.0-1.1","2uunga","Thu Feb 11 2021 15:52:45 GMT+0100 (Central European Standard Time)","2021","2","11","15","52","45","HK45","30","female","right","59","24","62","7","3","","","","","test","happy","happy","h","true"
"null","<div style=""font-size:60px;"">+</div>","null","html-keyboard-response","13","117959","0.0-9.0-0.2","2uunga","Thu Feb 11 2021 15:52:45 GMT+0100 (Central European Standard Time)","2021","2","11","15","52","45","HK45","30","female","right","59","24","62","7","3","","","","","fixation","","","",""
"916.8549999994866","img/image_stim_h_stroop.png","72","image-keyboard-response","14","118878","0.0-9.0-1.2","2uunga","Thu Feb 11 2021 15:52:45 GMT+0100 (Central European Standard Time)","2021","2","11","15","52","45","HK45","30","female","right","59","24","62","7","3","","","","","test","happy","fear","h","true"
"null","<div style=""font-size:60px;"">+</div>","null","html-keyboard-response","15","120887","0.0-9.0-0.3","2uunga","Thu Feb 11 2021 15:52:45 GMT+0100 (Central European Standard Time)","2021","2","11","15","52","45","HK45","30","female","right","59","24","62","7","3","","","","","fixation","","","",""
"508.7950000015553","img/image_stim_f_stroop.png","70","image-keyboard-response","16","121399","0.0-9.0-1.3","2uunga","Thu Feb 11 2021 15:52:45 GMT+0100 (Central European Standard Time)","2021","2","11","15","52","45","HK45","30","female","right","59","24","62","7","3","","","","","test","fear","happy","f","true"
"null","<div style=""font-size:60px;"">+</div>","null","html-keyboard-response","17","122157","0.0-9.0-0.4","2uunga","Thu Feb 11 2021 15:52:45 GMT+0100 (Central European Standard Time)","2021","2","11","15","52","45","HK45","30","female","right","59","24","62","7","3","","","","","fixation","","","",""
"606.3700000013341","img/image_stim_f_stroop.png","70","image-keyboard-response","18","122766","0.0-9.0-1.4","2uunga","Thu Feb 11 2021 15:52:45 GMT+0100 (Central European Standard Time)","2021","2","11","15","52","45","HK45","30","female","right","59","24","62","7","3","","","","","test","fear","happy","f","true"
"null","<div style=""font-size:60px;"">+</div>","null","html-keyboard-response","19","123023","0.0-9.0-0.5","2uunga","Thu Feb 11 2021 15:52:45 GMT+0100 (Central European Standard Time)","2021","2","11","15","52","45","HK45","30","female","right","59","24","62","7","3","","","","","fixation","","","",""
"780.0149999984569","img/image_stim_h_stroop.png","72","image-keyboard-response","20","123806","0.0-9.0-1.5","2uunga","Thu Feb 11 2021 15:52:45 GMT+0100 (Central European Standard Time)","2021","2","11","15","52","45","HK45","30","female","right","59","24","62","7","3","","","","","test","happy","fear","h","true"
"null","<div style=""font-size:60px;"">+</div>","null","html-keyboard-response","21","124311","0.0-9.0-0.6","2uunga","Thu Feb 11 2021 15:52:45 GMT+0100 (Central European Standard Time)","2021","2","11","15","52","45","HK45","30","female","right","59","24","62","7","3","","","","","fixation","","","",""
"755.9549999987212","img/image_stim_h.png","72","image-keyboard-response","22","125070","0.0-9.0-1.6","2uunga","Thu Feb 11 2021 15:52:45 GMT+0100 (Central European Standard Time)","2021","2","11","15","52","45","HK45","30","female","right","59","24","62","7","3","","","","","test","happy","happy","h","true"
"null","<div style=""font-size:60px;"">+</div>","null","html-keyboard-response","23","125827","0.0-9.0-0.7","2uunga","Thu Feb 11 2021 15:52:45 GMT+0100 (Central European Standard Time)","2021","2","11","15","52","45","HK45","30","female","right","59","24","62","7","3","","","","","fixation","","","",""
"688.799999999901","img/image_stim_f.png","70","image-keyboard-response","24","126518","0.0-9.0-1.7","2uunga","Thu Feb 11 2021 15:52:45 GMT+0100 (Central European Standard Time)","2021","2","11","15","52","45","HK45","30","female","right","59","24","62","7","3","","","","","test","fear","fear","f","true"
"null","<div style=""font-size:60px;"">+</div>","null","html-keyboard-response","25","128527","0.0-9.0-0.8","2uunga","Thu Feb 11 2021 15:52:45 GMT+0100 (Central European Standard Time)","2021","2","11","15","52","45","HK45","30","female","right","59","24","62","7","3","","","","","fixation","","","",""
"684.000000001106","img/image_stim_h_stroop.png","72","image-keyboard-response","26","129214","0.0-9.0-1.8","2uunga","Thu Feb 11 2021 15:52:45 GMT+0100 (Central European Standard Time)","2021","2","11","15","52","45","HK45","30","female","right","59","24","62","7","3","","","","","test","happy","fear","h","true"
"null","<div style=""font-size:60px;"">+</div>","null","html-keyboard-response","27","130473","0.0-9.0-0.9","2uunga","Thu Feb 11 2021 15:52:45 GMT+0100 (Central European Standard Time)","2021","2","11","15","52","45","HK45","30","female","right","59","24","62","7","3","","","","","fixation","","","",""
"786.7800000003481","img/image_stim_f.png","72","image-keyboard-response","28","131262","0.0-9.0-1.9","2uunga","Thu Feb 11 2021 15:52:45 GMT+0100 (Central European Standard Time)","2021","2","11","15","52","45","HK45","30","female","right","59","24","62","7","3","","","","","test","fear","fear","f","false"
"null","<div style=""font-size:60px;"">+</div>","null","html-keyboard-response","29","133271","0.0-9.0-0.10","2uunga","Thu Feb 11 2021 15:52:45 GMT+0100 (Central European Standard Time)","2021","2","11","15","52","45","HK45","30","female","right","59","24","62","7","3","","","","","fixation","","","",""
"667.9599999988568","img/image_stim_h.png","72","image-keyboard-response","30","133943","0.0-9.0-1.10","2uunga","Thu Feb 11 2021 15:52:45 GMT+0100 (Central European Standard Time)","2021","2","11","15","52","45","HK45","30","female","right","59","24","62","7","3","","","","","test","happy","happy","h","true"
"null","<div style=""font-size:60px;"">+</div>","null","html-keyboard-response","31","134448","0.0-9.0-0.11","2uunga","Thu Feb 11 2021 15:52:45 GMT+0100 (Central European Standard Time)","2021","2","11","15","52","45","HK45","30","female","right","59","24","62","7","3","","","","","fixation","","","",""
"699.8850000000093","img/image_stim_f_stroop.png","70","image-keyboard-response","32","135150","0.0-9.0-1.11","2uunga","Thu Feb 11 2021 15:52:45 GMT+0100 (Central European Standard Time)","2021","2","11","15","52","45","HK45","30","female","right","59","24","62","7","3","","","","","test","fear","happy","f","true"
"null","<div style=""font-size:60px;"">+</div>","null","html-keyboard-response","33","135656","0.0-9.0-0.12","2uunga","Thu Feb 11 2021 15:52:45 GMT+0100 (Central European Standard Time)","2021","2","11","15","52","45","HK45","30","female","right","59","24","62","7","3","","","","","fixation","","","",""
"635.6199999990931","img/image_stim_f.png","70","image-keyboard-response","34","136294","0.0-9.0-1.12","2uunga","Thu Feb 11 2021 15:52:45 GMT+0100 (Central European Standard Time)","2021","2","11","15","52","45","HK45","30","female","right","59","24","62","7","3","","","","","test","fear","fear","f","true"
"null","<div style=""font-size:60px;"">+</div>","null","html-keyboard-response","35","138053","0.0-9.0-0.13","2uunga","Thu Feb 11 2021 15:52:45 GMT+0100 (Central European Standard Time)","2021","2","11","15","52","45","HK45","30","female","right","59","24","62","7","3","","","","","fixation","","","",""
"486.39000000001397","img/image_stim_f_stroop.png","70","image-keyboard-response","36","138542","0.0-9.0-1.13","2uunga","Thu Feb 11 2021 15:52:45 GMT+0100 (Central European Standard Time)","2021","2","11","15","52","45","HK45","30","female","right","59","24","62","7","3","","","","","test","fear","happy","f","true"
"null","<div style=""font-size:60px;"">+</div>","null","html-keyboard-response","37","139047","0.0-9.0-0.14","2uunga","Thu Feb 11 2021 15:52:45 GMT+0100 (Central European Standard Time)","2021","2","11","15","52","45","HK45","30","female","right","59","24","62","7","3","","","","","fixation","","","",""
"508.31500000096275","img/image_stim_h.png","72","image-keyboard-response","38","139558","0.0-9.0-1.14","2uunga","Thu Feb 11 2021 15:52:45 GMT+0100 (Central European Standard Time)","2021","2","11","15","52","45","HK45","30","female","right","59","24","62","7","3","","","","","test","happy","happy","h","true"
"null","<div style=""font-size:60px;"">+</div>","null","html-keyboard-response","39","140317","0.0-9.0-0.15","2uunga","Thu Feb 11 2021 15:52:45 GMT+0100 (Central European Standard Time)","2021","2","11","15","52","45","HK45","30","female","right","59","24","62","7","3","","","","","fixation","","","",""
"526.0600000001141","img/image_stim_h_stroop.png","72","image-keyboard-response","40","140846","0.0-9.0-1.15","2uunga","Thu Feb 11 2021 15:52:45 GMT+0100 (Central European Standard Time)","2021","2","11","15","52","45","HK45","30","female","right","59","24","62","7","3","","","","","test","happy","fear","h","true"
"null","<div style=""font-size:60px;"">+</div>","null","html-keyboard-response","41","141104","0.0-9.0-0.16","2uunga","Thu Feb 11 2021 15:52:45 GMT+0100 (Central European Standard Time)","2021","2","11","15","52","45","HK45","30","female","right","59","24","62","7","3","","","","","fixation","","","",""
"531.114999999787","img/image_stim_f_stroop.png","70","image-keyboard-response","42","141638","0.0-9.0-1.16","2uunga","Thu Feb 11 2021 15:52:45 GMT+0100 (Central European Standard Time)","2021","2","11","15","52","45","HK45","30","female","right","59","24","62","7","3","","","","","test","fear","happy","f","true"
"null","<div style=""font-size:60px;"">+</div>","null","html-keyboard-response","43","142647","0.0-9.0-0.17","2uunga","Thu Feb 11 2021 15:52:45 GMT+0100 (Central European Standard Time)","2021","2","11","15","52","45","HK45","30","female","right","59","24","62","7","3","","","","","fixation","","","",""
"548.055000001099","img/image_stim_f.png","70","image-keyboard-response","44","143198","0.0-9.0-1.17","2uunga","Thu Feb 11 2021 15:52:45 GMT+0100 (Central European Standard Time)","2021","2","11","15","52","45","HK45","30","female","right","59","24","62","7","3","","","","","test","fear","fear","f","true"
"null","<div style=""font-size:60px;"">+</div>","null","html-keyboard-response","45","143703","0.0-9.0-0.18","2uunga","Thu Feb 11 2021 15:52:45 GMT+0100 (Central European Standard Time)","2021","2","11","15","52","45","HK45","30","female","right","59","24","62","7","3","","","","","fixation","","","",""
"484.73999999987427","img/image_stim_h_stroop.png","72","image-keyboard-response","46","144190","0.0-9.0-1.18","2uunga","Thu Feb 11 2021 15:52:45 GMT+0100 (Central European Standard Time)","2021","2","11","15","52","45","HK45","30","female","right","59","24","62","7","3","","","","","test","happy","fear","h","true"
"null","<div style=""font-size:60px;"">+</div>","null","html-keyboard-response","47","145700","0.0-9.0-0.19","2uunga","Thu Feb 11 2021 15:52:45 GMT+0100 (Central European Standard Time)","2021","2","11","15","52","45","HK45","30","female","right","59","24","62","7","3","","","","","fixation","","","",""
"639.5599999995902","img/image_stim_h.png","72","image-keyboard-response","48","146342","0.0-9.0-1.19","2uunga","Thu Feb 11 2021 15:52:45 GMT+0100 (Central European Standard Time)","2021","2","11","15","52","45","HK45","30","female","right","59","24","62","7","3","","","","","test","happy","happy","h","true"
"null","<div style=""font-size:60px;"">+</div>","null","html-keyboard-response","49","146847","0.0-9.0-0.20","2uunga","Thu Feb 11 2021 15:52:45 GMT+0100 (Central European Standard Time)","2021","2","11","15","52","45","HK45","30","female","right","59","24","62","7","3","","","","","fixation","","","",""
"452.07000000117114","img/image_stim_h.png","72","image-keyboard-response","50","147302","0.0-9.0-1.20","2uunga","Thu Feb 11 2021 15:52:45 GMT+0100 (Central European Standard Time)","2021","2","11","15","52","45","HK45","30","female","right","59","24","62","7","3","","","","","test","happy","happy","h","true"
"null","<div style=""font-size:60px;"">+</div>","null","html-keyboard-response","51","149312","0.0-9.0-0.21","2uunga","Thu Feb 11 2021 15:52:45 GMT+0100 (Central European Standard Time)","2021","2","11","15","52","45","HK45","30","female","right","59","24","62","7","3","","","","","fixation","","","",""
"643.1100000008882","img/image_stim_f.png","70","image-keyboard-response","52","149958","0.0-9.0-1.21","2uunga","Thu Feb 11 2021 15:52:45 GMT+0100 (Central European Standard Time)","2021","2","11","15","52","45","HK45","30","female","right","59","24","62","7","3","","","","","test","fear","fear","f","true"
"null","<div style=""font-size:60px;"">+</div>","null","html-keyboard-response","53","151216","0.0-9.0-0.22","2uunga","Thu Feb 11 2021 15:52:45 GMT+0100 (Central European Standard Time)","2021","2","11","15","52","45","HK45","30","female","right","59","24","62","7","3","","","","","fixation","","","",""
"651.2199999997392","img/image_stim_h_stroop.png","72","image-keyboard-response","54","151870","0.0-9.0-1.22","2uunga","Thu Feb 11 2021 15:52:45 GMT+0100 (Central European Standard Time)","2021","2","11","15","52","45","HK45","30","female","right","59","24","62","7","3","","","","","test","happy","fear","h","true"
"null","<div style=""font-size:60px;"">+</div>","null","html-keyboard-response","55","152630","0.0-9.0-0.23","2uunga","Thu Feb 11 2021 15:52:45 GMT+0100 (Central European Standard Time)","2021","2","11","15","52","45","HK45","30","female","right","59","24","62","7","3","","","","","fixation","","","",""
"564.3900000013527","img/image_stim_f_stroop.png","70","image-keyboard-response","56","153198","0.0-9.0-1.23","2uunga","Thu Feb 11 2021 15:52:45 GMT+0100 (Central European Standard Time)","2021","2","11","15","52","45","HK45","30","female","right","59","24","62","7","3","","","","","test","fear","happy","f","true"
"null","<div style=""font-size:60px;"">+</div>","null","html-keyboard-response","57","154203","0.0-9.0-0.24","2uunga","Thu Feb 11 2021 15:52:45 GMT+0100 (Central European Standard Time)","2021","2","11","15","52","45","HK45","30","female","right","59","24","62","7","3","","","","","fixation","","","",""
"400.2049999998999","img/image_stim_f.png","70","image-keyboard-response","58","154607","0.0-9.0-1.24","2uunga","Thu Feb 11 2021 15:52:45 GMT+0100 (Central European Standard Time)","2021","2","11","15","52","45","HK45","30","female","right","59","24","62","7","3","","","","","test","fear","fear","f","true"
"null","<div style=""font-size:60px;"">+</div>","null","html-keyboard-response","59","155616","0.0-9.0-0.25","2uunga","Thu Feb 11 2021 15:52:45 GMT+0100 (Central European Standard Time)","2021","2","11","15","52","45","HK45","30","female","right","59","24","62","7","3","","","","","fixation","","","",""
"459.18999999956577","img/image_stim_f_stroop.png","70","image-keyboard-response","60","156078","0.0-9.0-1.25","2uunga","Thu Feb 11 2021 15:52:45 GMT+0100 (Central European Standard Time)","2021","2","11","15","52","45","HK45","30","female","right","59","24","62","7","3","","","","","test","fear","happy","f","true"
"null","<div style=""font-size:60px;"">+</div>","null","html-keyboard-response","61","157838","0.0-9.0-0.26","2uunga","Thu Feb 11 2021 15:52:45 GMT+0100 (Central European Standard Time)","2021","2","11","15","52","45","HK45","30","female","right","59","24","62","7","3","","","","","fixation","","","",""
"444.9700000004668","img/image_stim_h_stroop.png","72","image-keyboard-response","62","158286","0.0-9.0-1.26","2uunga","Thu Feb 11 2021 15:52:45 GMT+0100 (Central European Standard Time)","2021","2","11","15","52","45","HK45","30","female","right","59","24","62","7","3","","","","","test","happy","fear","h","true"
"null","<div style=""font-size:60px;"">+</div>","null","html-keyboard-response","63","159546","0.0-9.0-0.27","2uunga","Thu Feb 11 2021 15:52:45 GMT+0100 (Central European Standard Time)","2021","2","11","15","52","45","HK45","30","female","right","59","24","62","7","3","","","","","fixation","","","",""
"409.1449999996112","img/image_stim_h.png","72","image-keyboard-response","64","159958","0.0-9.0-1.27","2uunga","Thu Feb 11 2021 15:52:45 GMT+0100 (Central European Standard Time)","2021","2","11","15","52","45","HK45","30","female","right","59","24","62","7","3","","","","","test","happy","happy","h","true"
"null","<div style=""font-size:60px;"">+</div>","null","html-keyboard-response","65","160719","0.0-9.0-0.28","2uunga","Thu Feb 11 2021 15:52:45 GMT+0100 (Central European Standard Time)","2021","2","11","15","52","45","HK45","30","female","right","59","24","62","7","3","","","","","fixation","","","",""
"524.4149999998626","img/image_stim_f.png","70","image-keyboard-response","66","161246","0.0-9.0-1.28","2uunga","Thu Feb 11 2021 15:52:45 GMT+0100 (Central European Standard Time)","2021","2","11","15","52","45","HK45","30","female","right","59","24","62","7","3","","","","","test","fear","fear","f","true"
"null","<div style=""font-size:60px;"">+</div>","null","html-keyboard-response","67","162757","0.0-9.0-0.29","2uunga","Thu Feb 11 2021 15:52:45 GMT+0100 (Central European Standard Time)","2021","2","11","15","52","45","HK45","30","female","right","59","24","62","7","3","","","","","fixation","","","",""
"645.9900000008638","img/image_stim_f_stroop.png","70","image-keyboard-response","68","163407","0.0-9.0-1.29","2uunga","Thu Feb 11 2021 15:52:45 GMT+0100 (Central European Standard Time)","2021","2","11","15","52","45","HK45","30","female","right","59","24","62","7","3","","","","","test","fear","happy","f","true"
"null","<div style=""font-size:60px;"">+</div>","null","html-keyboard-response","69","165420","0.0-9.0-0.30","2uunga","Thu Feb 11 2021 15:52:45 GMT+0100 (Central European Standard Time)","2021","2","11","15","52","45","HK45","30","female","right","59","24","62","7","3","","","","","fixation","","","",""
"558.7950000008568","img/image_stim_h_stroop.png","72","image-keyboard-response","70","165982","0.0-9.0-1.30","2uunga","Thu Feb 11 2021 15:52:45 GMT+0100 (Central European Standard Time)","2021","2","11","15","52","45","HK45","30","female","right","59","24","62","7","3","","","","","test","happy","fear","h","true"
"null","<div style=""font-size:60px;"">+</div>","null","html-keyboard-response","71","167490","0.0-9.0-0.31","2uunga","Thu Feb 11 2021 15:52:45 GMT+0100 (Central European Standard Time)","2021","2","11","15","52","45","HK45","30","female","right","59","24","62","7","3","","","","","fixation","","","",""
"768.804999999702","img/image_stim_h.png","72","image-keyboard-response","72","168262","0.0-9.0-1.31","2uunga","Thu Feb 11 2021 15:52:45 GMT+0100 (Central European Standard Time)","2021","2","11","15","52","45","HK45","30","female","right","59","24","62","7","3","","","","","test","happy","happy","h","true"
"null","<div style=""font-size:60px;"">+</div>","null","html-keyboard-response","73","169019","0.0-9.0-0.32","2uunga","Thu Feb 11 2021 15:52:45 GMT+0100 (Central European Standard Time)","2021","2","11","15","52","45","HK45","30","female","right","59","24","62","7","3","","","","","fixation","","","",""
"567.2199999990116","img/image_stim_f_stroop.png","70","image-keyboard-response","74","169589","0.0-9.0-1.32","2uunga","Thu Feb 11 2021 15:52:45 GMT+0100 (Central European Standard Time)","2021","2","11","15","52","45","HK45","30","female","right","59","24","62","7","3","","","","","test","fear","happy","f","true"
"null","<div style=""font-size:60px;"">+</div>","null","html-keyboard-response","75","170850","0.0-9.0-0.33","2uunga","Thu Feb 11 2021 15:52:45 GMT+0100 (Central European Standard Time)","2021","2","11","15","52","45","HK45","30","female","right","59","24","62","7","3","","","","","fixation","","","",""
"449.01000000027125","img/image_stim_f.png","70","image-keyboard-response","76","171301","0.0-9.0-1.33","2uunga","Thu Feb 11 2021 15:52:45 GMT+0100 (Central European Standard Time)","2021","2","11","15","52","45","HK45","30","female","right","59","24","62","7","3","","","","","test","fear","fear","f","true"
"null","<div style=""font-size:60px;"">+</div>","null","html-keyboard-response","77","173312","0.0-9.0-0.34","2uunga","Thu Feb 11 2021 15:52:45 GMT+0100 (Central European Standard Time)","2021","2","11","15","52","45","HK45","30","female","right","59","24","62","7","3","","","","","fixation","","","",""
"449.9050000013085","img/image_stim_h.png","72","image-keyboard-response","78","173766","0.0-9.0-1.34","2uunga","Thu Feb 11 2021 15:52:45 GMT+0100 (Central European Standard Time)","2021","2","11","15","52","45","HK45","30","female","right","59","24","62","7","3","","","","","test","happy","happy","h","true"
"null","<div style=""font-size:60px;"">+</div>","null","html-keyboard-response","79","175272","0.0-9.0-0.35","2uunga","Thu Feb 11 2021 15:52:45 GMT+0100 (Central European Standard Time)","2021","2","11","15","52","45","HK45","30","female","right","59","24","62","7","3","","","","","fixation","","","",""
"530.600000000064","img/image_stim_h_stroop.png","72","image-keyboard-response","80","175806","0.0-9.0-1.35","2uunga","Thu Feb 11 2021 15:52:45 GMT+0100 (Central European Standard Time)","2021","2","11","15","52","45","HK45","30","female","right","59","24","62","7","3","","","","","test","happy","fear","h","true"
