"rt","stimulus","key_press","trial_type","trial_index","time_elapsed","internal_node_id","exp_id","Time","year","month","date","hour","minute","seconds","id","age","Gender","Handedness","mood","fresh","hunger","H_since_Sleep","H_since_Eat","responses","question_order","slider_start","response","test_part","face","word","correct_response","correct"
"673979","<p>Welcome to this experiment on daily rhythms and cognition.</p><p>First you will be asked some questions about yourself.</p><p>Then a short experiment will measure your response time.</p><p>Take the test at different times of the day/night.</p><p>The test is anonymous, but comparing your data across time is important.</p><p>Therefore, please make up and remember a personal ID (two letters+ two numbers).</p><p>Use this ID whenever taking the test.</p><p><strong>Press any key to begin.</strong></p>","32","html-keyboard-response","0","674025","0.0-0.0","ukxuuy","Tue Feb 09 2021 17:03:21 GMT+0200 (EET)","2021","2","9","17","3","21","NK95","25","female","left","57","40","100","8","0","","","","","","","","",""
"30873","","","survey-text","1","704918","0.0-1.0","ukxuuy","Tue Feb 09 2021 17:03:21 GMT+0200 (EET)","2021","2","9","17","3","21","NK95","25","female","left","57","40","100","8","0","{""Q0"":""NK95""}","","","","","","","",""
"4231","","","survey-text","2","709154","0.0-2.0","ukxuuy","Tue Feb 09 2021 17:03:21 GMT+0200 (EET)","2021","2","9","17","3","21","NK95","25","female","left","57","40","100","8","0","{""Q0"":""25""}","","","","","","","",""
"9308","","","survey-multi-select","3","718464","0.0-3.0","ukxuuy","Tue Feb 09 2021 17:03:21 GMT+0200 (EET)","2021","2","9","17","3","21","NK95","25","female","left","57","40","100","8","0","{""Gender"":[""female""],""Hand"":[""left""]}","[0,1]","","","","","","",""
"14865","<p>How Sad/Angry or Happy are you right now?</p>","","html-slider-response","4","733330","0.0-4.0","ukxuuy","Tue Feb 09 2021 17:03:21 GMT+0200 (EET)","2021","2","9","17","3","21","NK95","25","female","left","57","40","100","8","0","","","50","57","","","","",""
"7930.000000000116","<p>How Tired/Sleepy/Distracted or Fresh/Awake/Alert are you right now?</p>","","html-slider-response","5","741261","0.0-5.0","ukxuuy","Tue Feb 09 2021 17:03:21 GMT+0200 (EET)","2021","2","9","17","3","21","NK95","25","female","left","57","40","100","8","0","","","50","40","","","","",""
"8332","<p>How Hungry or Satiated are you right now?</p>","","html-slider-response","6","749593","0.0-6.0","ukxuuy","Tue Feb 09 2021 17:03:21 GMT+0200 (EET)","2021","2","9","17","3","21","NK95","25","female","left","57","40","100","8","0","","","50","100","","","","",""
"27519","","","survey-multi-select","7","777122","0.0-7.0","ukxuuy","Tue Feb 09 2021 17:03:21 GMT+0200 (EET)","2021","2","9","17","3","21","NK95","25","female","left","57","40","100","8","0","{""Sleep"":[""8""],""Eat"":[""0""]}","[0,1]","","","","","","",""
"65204.00000000012","<p>In this experiment, a face and a word will appear in the center of the screen.</p><p>If the face is <strong>happy</strong>, press the letter <strong>H</strong> with <strong>right</strong> index finger.</p><p>If the face is <strong>fearful</strong>, press the letter <strong>F</strong> with <strong>left</strong> index finger.</p><p><strong>Ignore the written words</strong>. Respond as fast as possible while being correct. </p><div style='width: 900px;'><div style='float: left;'><img src='img/stimuli_stroop_happy.png'></img><p class='small'><strong>Press the H key for happy faces</strong></p></div><div class='float: right;'><img src='img/stimuli_stroop_fear.png'></img><p class='small'><strong>Press the F key for faces with fear</strong></p></div></div><p>If the screen turns blank, press <strong>SPACE</strong></p><p><strong>Press any key to begin.</strong></p>","32","html-keyboard-response","8","842327","0.0-8.0","ukxuuy","Tue Feb 09 2021 17:03:21 GMT+0200 (EET)","2021","2","9","17","3","21","NK95","25","female","left","57","40","100","8","0","","","","","","","","",""
"null","<div style=""font-size:60px;"">+</div>","null","html-keyboard-response","9","845831","0.0-9.0-0.0","ukxuuy","Tue Feb 09 2021 17:03:21 GMT+0200 (EET)","2021","2","9","17","3","21","NK95","25","female","left","57","40","100","8","0","","","","","fixation","","","",""
"1949","img/image_stim_h_stroop.png","72","image-keyboard-response","10","847790","0.0-9.0-1.0","ukxuuy","Tue Feb 09 2021 17:03:21 GMT+0200 (EET)","2021","2","9","17","3","21","NK95","25","female","left","57","40","100","8","0","","","","","test","happy","fear","h","true"
"null","<div style=""font-size:60px;"">+</div>","null","html-keyboard-response","11","848544","0.0-9.0-0.1","ukxuuy","Tue Feb 09 2021 17:03:21 GMT+0200 (EET)","2021","2","9","17","3","21","NK95","25","female","left","57","40","100","8","0","","","","","fixation","","","",""
"673","img/image_stim_f.png","70","image-keyboard-response","12","849218","0.0-9.0-1.1","ukxuuy","Tue Feb 09 2021 17:03:21 GMT+0200 (EET)","2021","2","9","17","3","21","NK95","25","female","left","57","40","100","8","0","","","","","test","fear","fear","f","true"
"null","<div style=""font-size:60px;"">+</div>","null","html-keyboard-response","13","849472","0.0-9.0-0.2","ukxuuy","Tue Feb 09 2021 17:03:21 GMT+0200 (EET)","2021","2","9","17","3","21","NK95","25","female","left","57","40","100","8","0","","","","","fixation","","","",""
"760","img/image_stim_h.png","72","image-keyboard-response","14","850233","0.0-9.0-1.2","ukxuuy","Tue Feb 09 2021 17:03:21 GMT+0200 (EET)","2021","2","9","17","3","21","NK95","25","female","left","57","40","100","8","0","","","","","test","happy","happy","h","true"
"null","<div style=""font-size:60px;"">+</div>","null","html-keyboard-response","15","851735","0.0-9.0-0.3","ukxuuy","Tue Feb 09 2021 17:03:21 GMT+0200 (EET)","2021","2","9","17","3","21","NK95","25","female","left","57","40","100","8","0","","","","","fixation","","","",""
"1298","img/image_stim_f_stroop.png","70","image-keyboard-response","16","853035","0.0-9.0-1.3","ukxuuy","Tue Feb 09 2021 17:03:21 GMT+0200 (EET)","2021","2","9","17","3","21","NK95","25","female","left","57","40","100","8","0","","","","","test","fear","happy","f","true"
"null","<div style=""font-size:60px;"">+</div>","null","html-keyboard-response","17","854037","0.0-9.0-0.4","ukxuuy","Tue Feb 09 2021 17:03:21 GMT+0200 (EET)","2021","2","9","17","3","21","NK95","25","female","left","57","40","100","8","0","","","","","fixation","","","",""
"1107","img/image_stim_f_stroop.png","70","image-keyboard-response","18","855146","0.0-9.0-1.4","ukxuuy","Tue Feb 09 2021 17:03:21 GMT+0200 (EET)","2021","2","9","17","3","21","NK95","25","female","left","57","40","100","8","0","","","","","test","fear","happy","f","true"
"null","<div style=""font-size:60px;"">+</div>","null","html-keyboard-response","19","856898","0.0-9.0-0.5","ukxuuy","Tue Feb 09 2021 17:03:21 GMT+0200 (EET)","2021","2","9","17","3","21","NK95","25","female","left","57","40","100","8","0","","","","","fixation","","","",""
"590.9999999998836","img/image_stim_f.png","70","image-keyboard-response","20","857490","0.0-9.0-1.5","ukxuuy","Tue Feb 09 2021 17:03:21 GMT+0200 (EET)","2021","2","9","17","3","21","NK95","25","female","left","57","40","100","8","0","","","","","test","fear","fear","f","true"
"null","<div style=""font-size:60px;"">+</div>","null","html-keyboard-response","21","858243","0.0-9.0-0.6","ukxuuy","Tue Feb 09 2021 17:03:21 GMT+0200 (EET)","2021","2","9","17","3","21","NK95","25","female","left","57","40","100","8","0","","","","","fixation","","","",""
"523","img/image_stim_h.png","72","image-keyboard-response","22","858767","0.0-9.0-1.6","ukxuuy","Tue Feb 09 2021 17:03:21 GMT+0200 (EET)","2021","2","9","17","3","21","NK95","25","female","left","57","40","100","8","0","","","","","test","happy","happy","h","true"
"null","<div style=""font-size:60px;"">+</div>","null","html-keyboard-response","23","860770","0.0-9.0-0.7","ukxuuy","Tue Feb 09 2021 17:03:21 GMT+0200 (EET)","2021","2","9","17","3","21","NK95","25","female","left","57","40","100","8","0","","","","","fixation","","","",""
"304","img/image_stim_h_stroop.png","70","image-keyboard-response","24","861075","0.0-9.0-1.7","ukxuuy","Tue Feb 09 2021 17:03:21 GMT+0200 (EET)","2021","2","9","17","3","21","NK95","25","female","left","57","40","100","8","0","","","","","test","happy","fear","h","false"
"null","<div style=""font-size:60px;"">+</div>","null","html-keyboard-response","25","862328","0.0-9.0-0.8","ukxuuy","Tue Feb 09 2021 17:03:21 GMT+0200 (EET)","2021","2","9","17","3","21","NK95","25","female","left","57","40","100","8","0","","","","","fixation","","","",""
"505","img/image_stim_f_stroop.png","70","image-keyboard-response","26","862834","0.0-9.0-1.8","ukxuuy","Tue Feb 09 2021 17:03:21 GMT+0200 (EET)","2021","2","9","17","3","21","NK95","25","female","left","57","40","100","8","0","","","","","test","fear","happy","f","true"
"null","<div style=""font-size:60px;"">+</div>","null","html-keyboard-response","27","864336","0.0-9.0-0.9","ukxuuy","Tue Feb 09 2021 17:03:21 GMT+0200 (EET)","2021","2","9","17","3","21","NK95","25","female","left","57","40","100","8","0","","","","","fixation","","","",""
"421.9999999998836","img/image_stim_h_stroop.png","72","image-keyboard-response","28","864759","0.0-9.0-1.9","ukxuuy","Tue Feb 09 2021 17:03:21 GMT+0200 (EET)","2021","2","9","17","3","21","NK95","25","female","left","57","40","100","8","0","","","","","test","happy","fear","h","true"
"null","<div style=""font-size:60px;"">+</div>","null","html-keyboard-response","29","865013","0.0-9.0-0.10","ukxuuy","Tue Feb 09 2021 17:03:21 GMT+0200 (EET)","2021","2","9","17","3","21","NK95","25","female","left","57","40","100","8","0","","","","","fixation","","","",""
"674.0000000001164","img/image_stim_f.png","70","image-keyboard-response","30","865688","0.0-9.0-1.10","ukxuuy","Tue Feb 09 2021 17:03:21 GMT+0200 (EET)","2021","2","9","17","3","21","NK95","25","female","left","57","40","100","8","0","","","","","test","fear","fear","f","true"
"null","<div style=""font-size:60px;"">+</div>","null","html-keyboard-response","31","866940","0.0-9.0-0.11","ukxuuy","Tue Feb 09 2021 17:03:21 GMT+0200 (EET)","2021","2","9","17","3","21","NK95","25","female","left","57","40","100","8","0","","","","","fixation","","","",""
"529","img/image_stim_h.png","72","image-keyboard-response","32","867471","0.0-9.0-1.11","ukxuuy","Tue Feb 09 2021 17:03:21 GMT+0200 (EET)","2021","2","9","17","3","21","NK95","25","female","left","57","40","100","8","0","","","","","test","happy","happy","h","true"
"null","<div style=""font-size:60px;"">+</div>","null","html-keyboard-response","33","867974","0.0-9.0-0.12","ukxuuy","Tue Feb 09 2021 17:03:21 GMT+0200 (EET)","2021","2","9","17","3","21","NK95","25","female","left","57","40","100","8","0","","","","","fixation","","","",""
"749","img/image_stim_f_stroop.png","70","image-keyboard-response","34","868724","0.0-9.0-1.12","ukxuuy","Tue Feb 09 2021 17:03:21 GMT+0200 (EET)","2021","2","9","17","3","21","NK95","25","female","left","57","40","100","8","0","","","","","test","fear","happy","f","true"
"null","<div style=""font-size:60px;"">+</div>","null","html-keyboard-response","35","868976","0.0-9.0-0.13","ukxuuy","Tue Feb 09 2021 17:03:21 GMT+0200 (EET)","2021","2","9","17","3","21","NK95","25","female","left","57","40","100","8","0","","","","","fixation","","","",""
"778.0000000001164","img/image_stim_h_stroop.png","72","image-keyboard-response","36","869755","0.0-9.0-1.13","ukxuuy","Tue Feb 09 2021 17:03:21 GMT+0200 (EET)","2021","2","9","17","3","21","NK95","25","female","left","57","40","100","8","0","","","","","test","happy","fear","h","true"
"null","<div style=""font-size:60px;"">+</div>","null","html-keyboard-response","37","870257","0.0-9.0-0.14","ukxuuy","Tue Feb 09 2021 17:03:21 GMT+0200 (EET)","2021","2","9","17","3","21","NK95","25","female","left","57","40","100","8","0","","","","","fixation","","","",""
"625","img/image_stim_h.png","72","image-keyboard-response","38","870883","0.0-9.0-1.14","ukxuuy","Tue Feb 09 2021 17:03:21 GMT+0200 (EET)","2021","2","9","17","3","21","NK95","25","female","left","57","40","100","8","0","","","","","test","happy","happy","h","true"
"null","<div style=""font-size:60px;"">+</div>","null","html-keyboard-response","39","872135","0.0-9.0-0.15","ukxuuy","Tue Feb 09 2021 17:03:21 GMT+0200 (EET)","2021","2","9","17","3","21","NK95","25","female","left","57","40","100","8","0","","","","","fixation","","","",""
"477","img/image_stim_f.png","70","image-keyboard-response","40","872613","0.0-9.0-1.15","ukxuuy","Tue Feb 09 2021 17:03:21 GMT+0200 (EET)","2021","2","9","17","3","21","NK95","25","female","left","57","40","100","8","0","","","","","test","fear","fear","f","true"
"null","<div style=""font-size:60px;"">+</div>","null","html-keyboard-response","41","873866","0.0-9.0-0.16","ukxuuy","Tue Feb 09 2021 17:03:21 GMT+0200 (EET)","2021","2","9","17","3","21","NK95","25","female","left","57","40","100","8","0","","","","","fixation","","","",""
"600","img/image_stim_f_stroop.png","70","image-keyboard-response","42","874467","0.0-9.0-1.16","ukxuuy","Tue Feb 09 2021 17:03:21 GMT+0200 (EET)","2021","2","9","17","3","21","NK95","25","female","left","57","40","100","8","0","","","","","test","fear","happy","f","true"
"null","<div style=""font-size:60px;"">+</div>","null","html-keyboard-response","43","875720","0.0-9.0-0.17","ukxuuy","Tue Feb 09 2021 17:03:21 GMT+0200 (EET)","2021","2","9","17","3","21","NK95","25","female","left","57","40","100","8","0","","","","","fixation","","","",""
"458","img/image_stim_h.png","72","image-keyboard-response","44","876179","0.0-9.0-1.17","ukxuuy","Tue Feb 09 2021 17:03:21 GMT+0200 (EET)","2021","2","9","17","3","21","NK95","25","female","left","57","40","100","8","0","","","","","test","happy","happy","h","true"
"null","<div style=""font-size:60px;"">+</div>","null","html-keyboard-response","45","877181","0.0-9.0-0.18","ukxuuy","Tue Feb 09 2021 17:03:21 GMT+0200 (EET)","2021","2","9","17","3","21","NK95","25","female","left","57","40","100","8","0","","","","","fixation","","","",""
"421","img/image_stim_h_stroop.png","70","image-keyboard-response","46","877603","0.0-9.0-1.18","ukxuuy","Tue Feb 09 2021 17:03:21 GMT+0200 (EET)","2021","2","9","17","3","21","NK95","25","female","left","57","40","100","8","0","","","","","test","happy","fear","h","false"
"null","<div style=""font-size:60px;"">+</div>","null","html-keyboard-response","47","878856","0.0-9.0-0.19","ukxuuy","Tue Feb 09 2021 17:03:21 GMT+0200 (EET)","2021","2","9","17","3","21","NK95","25","female","left","57","40","100","8","0","","","","","fixation","","","",""
"599","img/image_stim_f.png","70","image-keyboard-response","48","879456","0.0-9.0-1.19","ukxuuy","Tue Feb 09 2021 17:03:21 GMT+0200 (EET)","2021","2","9","17","3","21","NK95","25","female","left","57","40","100","8","0","","","","","test","fear","fear","f","true"
"null","<div style=""font-size:60px;"">+</div>","null","html-keyboard-response","49","880208","0.0-9.0-0.20","ukxuuy","Tue Feb 09 2021 17:03:21 GMT+0200 (EET)","2021","2","9","17","3","21","NK95","25","female","left","57","40","100","8","0","","","","","fixation","","","",""
"806","img/image_stim_h_stroop.png","72","image-keyboard-response","50","881016","0.0-9.0-1.20","ukxuuy","Tue Feb 09 2021 17:03:21 GMT+0200 (EET)","2021","2","9","17","3","21","NK95","25","female","left","57","40","100","8","0","","","","","test","happy","fear","h","true"
"null","<div style=""font-size:60px;"">+</div>","null","html-keyboard-response","51","881519","0.0-9.0-0.21","ukxuuy","Tue Feb 09 2021 17:03:21 GMT+0200 (EET)","2021","2","9","17","3","21","NK95","25","female","left","57","40","100","8","0","","","","","fixation","","","",""
"650","img/image_stim_h.png","72","image-keyboard-response","52","882170","0.0-9.0-1.21","ukxuuy","Tue Feb 09 2021 17:03:21 GMT+0200 (EET)","2021","2","9","17","3","21","NK95","25","female","left","57","40","100","8","0","","","","","test","happy","happy","h","true"
"null","<div style=""font-size:60px;"">+</div>","null","html-keyboard-response","53","882673","0.0-9.0-0.22","ukxuuy","Tue Feb 09 2021 17:03:21 GMT+0200 (EET)","2021","2","9","17","3","21","NK95","25","female","left","57","40","100","8","0","","","","","fixation","","","",""
"650","img/image_stim_f.png","70","image-keyboard-response","54","883324","0.0-9.0-1.22","ukxuuy","Tue Feb 09 2021 17:03:21 GMT+0200 (EET)","2021","2","9","17","3","21","NK95","25","female","left","57","40","100","8","0","","","","","test","fear","fear","f","true"
"null","<div style=""font-size:60px;"">+</div>","null","html-keyboard-response","55","883576","0.0-9.0-0.23","ukxuuy","Tue Feb 09 2021 17:03:21 GMT+0200 (EET)","2021","2","9","17","3","21","NK95","25","female","left","57","40","100","8","0","","","","","fixation","","","",""
"952","img/image_stim_f_stroop.png","70","image-keyboard-response","56","884530","0.0-9.0-1.23","ukxuuy","Tue Feb 09 2021 17:03:21 GMT+0200 (EET)","2021","2","9","17","3","21","NK95","25","female","left","57","40","100","8","0","","","","","test","fear","happy","f","true"
"null","<div style=""font-size:60px;"">+</div>","null","html-keyboard-response","57","885533","0.0-9.0-0.24","ukxuuy","Tue Feb 09 2021 17:03:21 GMT+0200 (EET)","2021","2","9","17","3","21","NK95","25","female","left","57","40","100","8","0","","","","","fixation","","","",""
"476.9999999998836","img/image_stim_f.png","70","image-keyboard-response","58","886011","0.0-9.0-1.24","ukxuuy","Tue Feb 09 2021 17:03:21 GMT+0200 (EET)","2021","2","9","17","3","21","NK95","25","female","left","57","40","100","8","0","","","","","test","fear","fear","f","true"
"null","<div style=""font-size:60px;"">+</div>","null","html-keyboard-response","59","888014","0.0-9.0-0.25","ukxuuy","Tue Feb 09 2021 17:03:21 GMT+0200 (EET)","2021","2","9","17","3","21","NK95","25","female","left","57","40","100","8","0","","","","","fixation","","","",""
"516","img/image_stim_h_stroop.png","72","image-keyboard-response","60","888532","0.0-9.0-1.25","ukxuuy","Tue Feb 09 2021 17:03:21 GMT+0200 (EET)","2021","2","9","17","3","21","NK95","25","female","left","57","40","100","8","0","","","","","test","happy","fear","h","true"
"null","<div style=""font-size:60px;"">+</div>","null","html-keyboard-response","61","889535","0.0-9.0-0.26","ukxuuy","Tue Feb 09 2021 17:03:21 GMT+0200 (EET)","2021","2","9","17","3","21","NK95","25","female","left","57","40","100","8","0","","","","","fixation","","","",""
"458","img/image_stim_f_stroop.png","70","image-keyboard-response","62","889994","0.0-9.0-1.26","ukxuuy","Tue Feb 09 2021 17:03:21 GMT+0200 (EET)","2021","2","9","17","3","21","NK95","25","female","left","57","40","100","8","0","","","","","test","fear","happy","f","true"
"null","<div style=""font-size:60px;"">+</div>","null","html-keyboard-response","63","890247","0.0-9.0-0.27","ukxuuy","Tue Feb 09 2021 17:03:21 GMT+0200 (EET)","2021","2","9","17","3","21","NK95","25","female","left","57","40","100","8","0","","","","","fixation","","","",""
"606","img/image_stim_h.png","72","image-keyboard-response","64","890854","0.0-9.0-1.27","ukxuuy","Tue Feb 09 2021 17:03:21 GMT+0200 (EET)","2021","2","9","17","3","21","NK95","25","female","left","57","40","100","8","0","","","","","test","happy","happy","h","true"
"null","<div style=""font-size:60px;"">+</div>","null","html-keyboard-response","65","891357","0.0-9.0-0.28","ukxuuy","Tue Feb 09 2021 17:03:21 GMT+0200 (EET)","2021","2","9","17","3","21","NK95","25","female","left","57","40","100","8","0","","","","","fixation","","","",""
"514","img/image_stim_h_stroop.png","72","image-keyboard-response","66","891872","0.0-9.0-1.28","ukxuuy","Tue Feb 09 2021 17:03:21 GMT+0200 (EET)","2021","2","9","17","3","21","NK95","25","female","left","57","40","100","8","0","","","","","test","happy","fear","h","true"
"null","<div style=""font-size:60px;"">+</div>","null","html-keyboard-response","67","893125","0.0-9.0-0.29","ukxuuy","Tue Feb 09 2021 17:03:21 GMT+0200 (EET)","2021","2","9","17","3","21","NK95","25","female","left","57","40","100","8","0","","","","","fixation","","","",""
"511","img/image_stim_h.png","72","image-keyboard-response","68","893637","0.0-9.0-1.29","ukxuuy","Tue Feb 09 2021 17:03:21 GMT+0200 (EET)","2021","2","9","17","3","21","NK95","25","female","left","57","40","100","8","0","","","","","test","happy","happy","h","true"
"null","<div style=""font-size:60px;"">+</div>","null","html-keyboard-response","69","895390","0.0-9.0-0.30","ukxuuy","Tue Feb 09 2021 17:03:21 GMT+0200 (EET)","2021","2","9","17","3","21","NK95","25","female","left","57","40","100","8","0","","","","","fixation","","","",""
"428","img/image_stim_f.png","70","image-keyboard-response","70","895818","0.0-9.0-1.30","ukxuuy","Tue Feb 09 2021 17:03:21 GMT+0200 (EET)","2021","2","9","17","3","21","NK95","25","female","left","57","40","100","8","0","","","","","test","fear","fear","f","true"
"null","<div style=""font-size:60px;"">+</div>","null","html-keyboard-response","71","897322","0.0-9.0-0.31","ukxuuy","Tue Feb 09 2021 17:03:21 GMT+0200 (EET)","2021","2","9","17","3","21","NK95","25","female","left","57","40","100","8","0","","","","","fixation","","","",""
"497","img/image_stim_f_stroop.png","70","image-keyboard-response","72","897820","0.0-9.0-1.31","ukxuuy","Tue Feb 09 2021 17:03:21 GMT+0200 (EET)","2021","2","9","17","3","21","NK95","25","female","left","57","40","100","8","0","","","","","test","fear","happy","f","true"
"null","<div style=""font-size:60px;"">+</div>","null","html-keyboard-response","73","899322","0.0-9.0-0.32","ukxuuy","Tue Feb 09 2021 17:03:21 GMT+0200 (EET)","2021","2","9","17","3","21","NK95","25","female","left","57","40","100","8","0","","","","","fixation","","","",""
"404","img/image_stim_f.png","70","image-keyboard-response","74","899727","0.0-9.0-1.32","ukxuuy","Tue Feb 09 2021 17:03:21 GMT+0200 (EET)","2021","2","9","17","3","21","NK95","25","female","left","57","40","100","8","0","","","","","test","fear","fear","f","true"
"null","<div style=""font-size:60px;"">+</div>","null","html-keyboard-response","75","901731","0.0-9.0-0.33","ukxuuy","Tue Feb 09 2021 17:03:21 GMT+0200 (EET)","2021","2","9","17","3","21","NK95","25","female","left","57","40","100","8","0","","","","","fixation","","","",""
"453","img/image_stim_h_stroop.png","72","image-keyboard-response","76","902185","0.0-9.0-1.33","ukxuuy","Tue Feb 09 2021 17:03:21 GMT+0200 (EET)","2021","2","9","17","3","21","NK95","25","female","left","57","40","100","8","0","","","","","test","happy","fear","h","true"
"null","<div style=""font-size:60px;"">+</div>","null","html-keyboard-response","77","903939","0.0-9.0-0.34","ukxuuy","Tue Feb 09 2021 17:03:21 GMT+0200 (EET)","2021","2","9","17","3","21","NK95","25","female","left","57","40","100","8","0","","","","","fixation","","","",""
"499","img/image_stim_f_stroop.png","70","image-keyboard-response","78","904440","0.0-9.0-1.34","ukxuuy","Tue Feb 09 2021 17:03:21 GMT+0200 (EET)","2021","2","9","17","3","21","NK95","25","female","left","57","40","100","8","0","","","","","test","fear","happy","f","true"
"null","<div style=""font-size:60px;"">+</div>","null","html-keyboard-response","79","905694","0.0-9.0-0.35","ukxuuy","Tue Feb 09 2021 17:03:21 GMT+0200 (EET)","2021","2","9","17","3","21","NK95","25","female","left","57","40","100","8","0","","","","","fixation","","","",""
"485","img/image_stim_h.png","72","image-keyboard-response","80","906181","0.0-9.0-1.35","ukxuuy","Tue Feb 09 2021 17:03:21 GMT+0200 (EET)","2021","2","9","17","3","21","NK95","25","female","left","57","40","100","8","0","","","","","test","happy","happy","h","true"
