"rt","stimulus","key_press","trial_type","trial_index","time_elapsed","internal_node_id","exp_id","Time","year","month","date","hour","minute","seconds","id","age","Gender","Handedness","mood","fresh","hunger","H_since_Sleep","H_since_Eat","responses","question_order","slider_start","response","test_part","face","word","correct_response","correct"
"1570","<p>Welcome to this experiment on daily rhythms and cognition.</p><p>First you will be asked some questions about yourself.</p><p>Then a short experiment will measure your response time.</p><p>Take the test at different times of the day/night.</p><p>The test is anonymous, but comparing your data across time is important.</p><p>Therefore, please make up and remember a personal ID (two letters+ two numbers).</p><p>Use this ID whenever taking the test.</p><p><strong>Press any key to begin.</strong></p>","32","html-keyboard-response","0","1572","0.0-0.0","3ov5wv","Tue Feb 08 2022 08:56:10 GMT+0100 (Centraleuropæisk normaltid)","2022","2","8","8","56","10","vl00","21","female","right","80","79","100","1","0","","","","","","","","",""
"3880.100000143051","","","survey-text","1","5454","0.0-1.0","3ov5wv","Tue Feb 08 2022 08:56:10 GMT+0100 (Centraleuropæisk normaltid)","2022","2","8","8","56","10","vl00","21","female","right","80","79","100","1","0","{""Q0"":""vl00""}","","","","","","","",""
"1375.3999998569489","","","survey-text","2","6832","0.0-2.0","3ov5wv","Tue Feb 08 2022 08:56:10 GMT+0100 (Centraleuropæisk normaltid)","2022","2","8","8","56","10","vl00","21","female","right","80","79","100","1","0","{""Q0"":""21""}","","","","","","","",""
"3220.7999999523163","","","survey-multi-select","3","10056","0.0-3.0","3ov5wv","Tue Feb 08 2022 08:56:10 GMT+0100 (Centraleuropæisk normaltid)","2022","2","8","8","56","10","vl00","21","female","right","80","79","100","1","0","{""Gender"":[""female""],""Hand"":[""right""]}","[0,1]","","","","","","",""
"3396.800000190735","<p>How Sad/Angry or Happy are you right now?</p>","","html-slider-response","4","13454","0.0-4.0","3ov5wv","Tue Feb 08 2022 08:56:10 GMT+0100 (Centraleuropæisk normaltid)","2022","2","8","8","56","10","vl00","21","female","right","80","79","100","1","0","","","50","80","","","","",""
"3977.0999999046326","<p>How Tired/Sleepy/Distracted or Fresh/Awake/Alert are you right now?</p>","","html-slider-response","5","17432","0.0-5.0","3ov5wv","Tue Feb 08 2022 08:56:10 GMT+0100 (Centraleuropæisk normaltid)","2022","2","8","8","56","10","vl00","21","female","right","80","79","100","1","0","","","50","79","","","","",""
"2800.0999999046326","<p>How Hungry or Satiated are you right now?</p>","","html-slider-response","6","20234","0.0-6.0","3ov5wv","Tue Feb 08 2022 08:56:10 GMT+0100 (Centraleuropæisk normaltid)","2022","2","8","8","56","10","vl00","21","female","right","80","79","100","1","0","","","50","100","","","","",""
"5015.400000095367","","","survey-multi-select","7","25263","0.0-7.0","3ov5wv","Tue Feb 08 2022 08:56:10 GMT+0100 (Centraleuropæisk normaltid)","2022","2","8","8","56","10","vl00","21","female","right","80","79","100","1","0","{""Sleep"":[""1""],""Eat"":[""0""]}","[0,1]","","","","","","",""
"3835.699999809265","<p>In this experiment, a face and a word will appear in the center of the screen.</p><p>If the face is <strong>happy</strong>, press the letter <strong>H</strong> with <strong>right</strong> index finger.</p><p>If the face is <strong>fearful</strong>, press the letter <strong>F</strong> with <strong>left</strong> index finger.</p><p><strong>Ignore the written words</strong>. Respond as fast as possible while being correct. </p><div style='width: 900px;'><div style='float: left;'><img src='img/stimuli_stroop_happy.png'></img><p class='small'><strong>Press the H key for happy faces</strong></p></div><div class='float: right;'><img src='img/stimuli_stroop_fear.png'></img><p class='small'><strong>Press the F key for faces with fear</strong></p></div></div><p>If the screen turns blank, press <strong>SPACE</strong></p><p><strong>Press any key to begin.</strong></p>","32","html-keyboard-response","8","29099","0.0-8.0","3ov5wv","Tue Feb 08 2022 08:56:10 GMT+0100 (Centraleuropæisk normaltid)","2022","2","8","8","56","10","vl00","21","female","right","80","79","100","1","0","","","","","","","","",""
"null","<div style=""font-size:60px;"">+</div>","null","html-keyboard-response","9","32123","0.0-9.0-0.0","3ov5wv","Tue Feb 08 2022 08:56:10 GMT+0100 (Centraleuropæisk normaltid)","2022","2","8","8","56","10","vl00","21","female","right","80","79","100","1","0","","","","","fixation","","","",""
"571.5","img/image_stim_h_stroop.png","72","image-keyboard-response","10","32696","0.0-9.0-1.0","3ov5wv","Tue Feb 08 2022 08:56:10 GMT+0100 (Centraleuropæisk normaltid)","2022","2","8","8","56","10","vl00","21","female","right","80","79","100","1","0","","","","","test","happy","fear","h","true"
"null","<div style=""font-size:60px;"">+</div>","null","html-keyboard-response","11","32960","0.0-9.0-0.1","3ov5wv","Tue Feb 08 2022 08:56:10 GMT+0100 (Centraleuropæisk normaltid)","2022","2","8","8","56","10","vl00","21","female","right","80","79","100","1","0","","","","","fixation","","","",""
"536.0999999046326","img/image_stim_f.png","70","image-keyboard-response","12","33497","0.0-9.0-1.1","3ov5wv","Tue Feb 08 2022 08:56:10 GMT+0100 (Centraleuropæisk normaltid)","2022","2","8","8","56","10","vl00","21","female","right","80","79","100","1","0","","","","","test","fear","fear","f","true"
"null","<div style=""font-size:60px;"">+</div>","null","html-keyboard-response","13","34001","0.0-9.0-0.2","3ov5wv","Tue Feb 08 2022 08:56:10 GMT+0100 (Centraleuropæisk normaltid)","2022","2","8","8","56","10","vl00","21","female","right","80","79","100","1","0","","","","","fixation","","","",""
"421.5","img/image_stim_h.png","70","image-keyboard-response","14","34424","0.0-9.0-1.2","3ov5wv","Tue Feb 08 2022 08:56:10 GMT+0100 (Centraleuropæisk normaltid)","2022","2","8","8","56","10","vl00","21","female","right","80","79","100","1","0","","","","","test","happy","happy","h","false"
"null","<div style=""font-size:60px;"">+</div>","null","html-keyboard-response","15","35186","0.0-9.0-0.3","3ov5wv","Tue Feb 08 2022 08:56:10 GMT+0100 (Centraleuropæisk normaltid)","2022","2","8","8","56","10","vl00","21","female","right","80","79","100","1","0","","","","","fixation","","","",""
"615.5999999046326","img/image_stim_f_stroop.png","70","image-keyboard-response","16","35802","0.0-9.0-1.3","3ov5wv","Tue Feb 08 2022 08:56:10 GMT+0100 (Centraleuropæisk normaltid)","2022","2","8","8","56","10","vl00","21","female","right","80","79","100","1","0","","","","","test","fear","happy","f","true"
"null","<div style=""font-size:60px;"">+</div>","null","html-keyboard-response","17","37560","0.0-9.0-0.4","3ov5wv","Tue Feb 08 2022 08:56:10 GMT+0100 (Centraleuropæisk normaltid)","2022","2","8","8","56","10","vl00","21","female","right","80","79","100","1","0","","","","","fixation","","","",""
"372.90000009536743","img/image_stim_h_stroop.png","72","image-keyboard-response","18","37934","0.0-9.0-1.4","3ov5wv","Tue Feb 08 2022 08:56:10 GMT+0100 (Centraleuropæisk normaltid)","2022","2","8","8","56","10","vl00","21","female","right","80","79","100","1","0","","","","","test","happy","fear","h","true"
"null","<div style=""font-size:60px;"">+</div>","null","html-keyboard-response","19","38949","0.0-9.0-0.5","3ov5wv","Tue Feb 08 2022 08:56:10 GMT+0100 (Centraleuropæisk normaltid)","2022","2","8","8","56","10","vl00","21","female","right","80","79","100","1","0","","","","","fixation","","","",""
"441.90000009536743","img/image_stim_h.png","72","image-keyboard-response","20","39392","0.0-9.0-1.5","3ov5wv","Tue Feb 08 2022 08:56:10 GMT+0100 (Centraleuropæisk normaltid)","2022","2","8","8","56","10","vl00","21","female","right","80","79","100","1","0","","","","","test","happy","happy","h","true"
"null","<div style=""font-size:60px;"">+</div>","null","html-keyboard-response","21","40902","0.0-9.0-0.6","3ov5wv","Tue Feb 08 2022 08:56:10 GMT+0100 (Centraleuropæisk normaltid)","2022","2","8","8","56","10","vl00","21","female","right","80","79","100","1","0","","","","","fixation","","","",""
"640","img/image_stim_f.png","70","image-keyboard-response","22","41543","0.0-9.0-1.6","3ov5wv","Tue Feb 08 2022 08:56:10 GMT+0100 (Centraleuropæisk normaltid)","2022","2","8","8","56","10","vl00","21","female","right","80","79","100","1","0","","","","","test","fear","fear","f","true"
"null","<div style=""font-size:60px;"">+</div>","null","html-keyboard-response","23","43308","0.0-9.0-0.7","3ov5wv","Tue Feb 08 2022 08:56:10 GMT+0100 (Centraleuropæisk normaltid)","2022","2","8","8","56","10","vl00","21","female","right","80","79","100","1","0","","","","","fixation","","","",""
"479.7000000476837","img/image_stim_f_stroop.png","70","image-keyboard-response","24","43789","0.0-9.0-1.7","3ov5wv","Tue Feb 08 2022 08:56:10 GMT+0100 (Centraleuropæisk normaltid)","2022","2","8","8","56","10","vl00","21","female","right","80","79","100","1","0","","","","","test","fear","happy","f","true"
"null","<div style=""font-size:60px;"">+</div>","null","html-keyboard-response","25","44043","0.0-9.0-0.8","3ov5wv","Tue Feb 08 2022 08:56:10 GMT+0100 (Centraleuropæisk normaltid)","2022","2","8","8","56","10","vl00","21","female","right","80","79","100","1","0","","","","","fixation","","","",""
"548.7999999523163","img/image_stim_h_stroop.png","72","image-keyboard-response","26","44592","0.0-9.0-1.8","3ov5wv","Tue Feb 08 2022 08:56:10 GMT+0100 (Centraleuropæisk normaltid)","2022","2","8","8","56","10","vl00","21","female","right","80","79","100","1","0","","","","","test","happy","fear","h","true"
"null","<div style=""font-size:60px;"">+</div>","null","html-keyboard-response","27","44848","0.0-9.0-0.9","3ov5wv","Tue Feb 08 2022 08:56:10 GMT+0100 (Centraleuropæisk normaltid)","2022","2","8","8","56","10","vl00","21","female","right","80","79","100","1","0","","","","","fixation","","","",""
"521","img/image_stim_f.png","70","image-keyboard-response","28","45370","0.0-9.0-1.9","3ov5wv","Tue Feb 08 2022 08:56:10 GMT+0100 (Centraleuropæisk normaltid)","2022","2","8","8","56","10","vl00","21","female","right","80","79","100","1","0","","","","","test","fear","fear","f","true"
"null","<div style=""font-size:60px;"">+</div>","null","html-keyboard-response","29","47383","0.0-9.0-0.10","3ov5wv","Tue Feb 08 2022 08:56:10 GMT+0100 (Centraleuropæisk normaltid)","2022","2","8","8","56","10","vl00","21","female","right","80","79","100","1","0","","","","","fixation","","","",""
"501.2999999523163","img/image_stim_h.png","72","image-keyboard-response","30","47886","0.0-9.0-1.10","3ov5wv","Tue Feb 08 2022 08:56:10 GMT+0100 (Centraleuropæisk normaltid)","2022","2","8","8","56","10","vl00","21","female","right","80","79","100","1","0","","","","","test","happy","happy","h","true"
"null","<div style=""font-size:60px;"">+</div>","null","html-keyboard-response","31","49904","0.0-9.0-0.11","3ov5wv","Tue Feb 08 2022 08:56:10 GMT+0100 (Centraleuropæisk normaltid)","2022","2","8","8","56","10","vl00","21","female","right","80","79","100","1","0","","","","","fixation","","","",""
"412.7000000476837","img/image_stim_f_stroop.png","70","image-keyboard-response","32","50318","0.0-9.0-1.11","3ov5wv","Tue Feb 08 2022 08:56:10 GMT+0100 (Centraleuropæisk normaltid)","2022","2","8","8","56","10","vl00","21","female","right","80","79","100","1","0","","","","","test","fear","happy","f","true"
"null","<div style=""font-size:60px;"">+</div>","null","html-keyboard-response","33","51825","0.0-9.0-0.12","3ov5wv","Tue Feb 08 2022 08:56:10 GMT+0100 (Centraleuropæisk normaltid)","2022","2","8","8","56","10","vl00","21","female","right","80","79","100","1","0","","","","","fixation","","","",""
"458.90000009536743","img/image_stim_f.png","70","image-keyboard-response","34","52285","0.0-9.0-1.12","3ov5wv","Tue Feb 08 2022 08:56:10 GMT+0100 (Centraleuropæisk normaltid)","2022","2","8","8","56","10","vl00","21","female","right","80","79","100","1","0","","","","","test","fear","fear","f","true"
"null","<div style=""font-size:60px;"">+</div>","null","html-keyboard-response","35","54051","0.0-9.0-0.13","3ov5wv","Tue Feb 08 2022 08:56:10 GMT+0100 (Centraleuropæisk normaltid)","2022","2","8","8","56","10","vl00","21","female","right","80","79","100","1","0","","","","","fixation","","","",""
"398.80000019073486","img/image_stim_f_stroop.png","70","image-keyboard-response","36","54451","0.0-9.0-1.13","3ov5wv","Tue Feb 08 2022 08:56:10 GMT+0100 (Centraleuropæisk normaltid)","2022","2","8","8","56","10","vl00","21","female","right","80","79","100","1","0","","","","","test","fear","happy","f","true"
"null","<div style=""font-size:60px;"">+</div>","null","html-keyboard-response","37","55958","0.0-9.0-0.14","3ov5wv","Tue Feb 08 2022 08:56:10 GMT+0100 (Centraleuropæisk normaltid)","2022","2","8","8","56","10","vl00","21","female","right","80","79","100","1","0","","","","","fixation","","","",""
"422.7999999523163","img/image_stim_h.png","72","image-keyboard-response","38","56382","0.0-9.0-1.14","3ov5wv","Tue Feb 08 2022 08:56:10 GMT+0100 (Centraleuropæisk normaltid)","2022","2","8","8","56","10","vl00","21","female","right","80","79","100","1","0","","","","","test","happy","happy","h","true"
"null","<div style=""font-size:60px;"">+</div>","null","html-keyboard-response","39","56896","0.0-9.0-0.15","3ov5wv","Tue Feb 08 2022 08:56:10 GMT+0100 (Centraleuropæisk normaltid)","2022","2","8","8","56","10","vl00","21","female","right","80","79","100","1","0","","","","","fixation","","","",""
"409","img/image_stim_h_stroop.png","72","image-keyboard-response","40","57306","0.0-9.0-1.15","3ov5wv","Tue Feb 08 2022 08:56:10 GMT+0100 (Centraleuropæisk normaltid)","2022","2","8","8","56","10","vl00","21","female","right","80","79","100","1","0","","","","","test","happy","fear","h","true"
"null","<div style=""font-size:60px;"">+</div>","null","html-keyboard-response","41","58072","0.0-9.0-0.16","3ov5wv","Tue Feb 08 2022 08:56:10 GMT+0100 (Centraleuropæisk normaltid)","2022","2","8","8","56","10","vl00","21","female","right","80","79","100","1","0","","","","","fixation","","","",""
"367.40000009536743","img/image_stim_h_stroop.png","72","image-keyboard-response","42","58440","0.0-9.0-1.16","3ov5wv","Tue Feb 08 2022 08:56:10 GMT+0100 (Centraleuropæisk normaltid)","2022","2","8","8","56","10","vl00","21","female","right","80","79","100","1","0","","","","","test","happy","fear","h","true"
"null","<div style=""font-size:60px;"">+</div>","null","html-keyboard-response","43","60445","0.0-9.0-0.17","3ov5wv","Tue Feb 08 2022 08:56:10 GMT+0100 (Centraleuropæisk normaltid)","2022","2","8","8","56","10","vl00","21","female","right","80","79","100","1","0","","","","","fixation","","","",""
"474.2999999523163","img/image_stim_f_stroop.png","70","image-keyboard-response","44","60921","0.0-9.0-1.17","3ov5wv","Tue Feb 08 2022 08:56:10 GMT+0100 (Centraleuropæisk normaltid)","2022","2","8","8","56","10","vl00","21","female","right","80","79","100","1","0","","","","","test","fear","happy","f","true"
"null","<div style=""font-size:60px;"">+</div>","null","html-keyboard-response","45","61433","0.0-9.0-0.18","3ov5wv","Tue Feb 08 2022 08:56:10 GMT+0100 (Centraleuropæisk normaltid)","2022","2","8","8","56","10","vl00","21","female","right","80","79","100","1","0","","","","","fixation","","","",""
"532.5","img/image_stim_f.png","70","image-keyboard-response","46","61966","0.0-9.0-1.18","3ov5wv","Tue Feb 08 2022 08:56:10 GMT+0100 (Centraleuropæisk normaltid)","2022","2","8","8","56","10","vl00","21","female","right","80","79","100","1","0","","","","","test","fear","fear","f","true"
"null","<div style=""font-size:60px;"">+</div>","null","html-keyboard-response","47","63974","0.0-9.0-0.19","3ov5wv","Tue Feb 08 2022 08:56:10 GMT+0100 (Centraleuropæisk normaltid)","2022","2","8","8","56","10","vl00","21","female","right","80","79","100","1","0","","","","","fixation","","","",""
"451.2000000476837","img/image_stim_h.png","72","image-keyboard-response","48","64427","0.0-9.0-1.19","3ov5wv","Tue Feb 08 2022 08:56:10 GMT+0100 (Centraleuropæisk normaltid)","2022","2","8","8","56","10","vl00","21","female","right","80","79","100","1","0","","","","","test","happy","happy","h","true"
"null","<div style=""font-size:60px;"">+</div>","null","html-keyboard-response","49","66190","0.0-9.0-0.20","3ov5wv","Tue Feb 08 2022 08:56:10 GMT+0100 (Centraleuropæisk normaltid)","2022","2","8","8","56","10","vl00","21","female","right","80","79","100","1","0","","","","","fixation","","","",""
"425.7000000476837","img/image_stim_f_stroop.png","70","image-keyboard-response","50","66617","0.0-9.0-1.20","3ov5wv","Tue Feb 08 2022 08:56:10 GMT+0100 (Centraleuropæisk normaltid)","2022","2","8","8","56","10","vl00","21","female","right","80","79","100","1","0","","","","","test","fear","happy","f","true"
"null","<div style=""font-size:60px;"">+</div>","null","html-keyboard-response","51","67373","0.0-9.0-0.21","3ov5wv","Tue Feb 08 2022 08:56:10 GMT+0100 (Centraleuropæisk normaltid)","2022","2","8","8","56","10","vl00","21","female","right","80","79","100","1","0","","","","","fixation","","","",""
"442.39999985694885","img/image_stim_h_stroop.png","72","image-keyboard-response","52","67816","0.0-9.0-1.21","3ov5wv","Tue Feb 08 2022 08:56:10 GMT+0100 (Centraleuropæisk normaltid)","2022","2","8","8","56","10","vl00","21","female","right","80","79","100","1","0","","","","","test","happy","fear","h","true"
"null","<div style=""font-size:60px;"">+</div>","null","html-keyboard-response","53","69082","0.0-9.0-0.22","3ov5wv","Tue Feb 08 2022 08:56:10 GMT+0100 (Centraleuropæisk normaltid)","2022","2","8","8","56","10","vl00","21","female","right","80","79","100","1","0","","","","","fixation","","","",""
"488.69999980926514","img/image_stim_h.png","72","image-keyboard-response","54","69571","0.0-9.0-1.22","3ov5wv","Tue Feb 08 2022 08:56:10 GMT+0100 (Centraleuropæisk normaltid)","2022","2","8","8","56","10","vl00","21","female","right","80","79","100","1","0","","","","","test","happy","happy","h","true"
"null","<div style=""font-size:60px;"">+</div>","null","html-keyboard-response","55","70588","0.0-9.0-0.23","3ov5wv","Tue Feb 08 2022 08:56:10 GMT+0100 (Centraleuropæisk normaltid)","2022","2","8","8","56","10","vl00","21","female","right","80","79","100","1","0","","","","","fixation","","","",""
"564.2000000476837","img/image_stim_f.png","70","image-keyboard-response","56","71153","0.0-9.0-1.23","3ov5wv","Tue Feb 08 2022 08:56:10 GMT+0100 (Centraleuropæisk normaltid)","2022","2","8","8","56","10","vl00","21","female","right","80","79","100","1","0","","","","","test","fear","fear","f","true"
"null","<div style=""font-size:60px;"">+</div>","null","html-keyboard-response","57","71415","0.0-9.0-0.24","3ov5wv","Tue Feb 08 2022 08:56:10 GMT+0100 (Centraleuropæisk normaltid)","2022","2","8","8","56","10","vl00","21","female","right","80","79","100","1","0","","","","","fixation","","","",""
"534.7999999523163","img/image_stim_f.png","70","image-keyboard-response","58","71951","0.0-9.0-1.24","3ov5wv","Tue Feb 08 2022 08:56:10 GMT+0100 (Centraleuropæisk normaltid)","2022","2","8","8","56","10","vl00","21","female","right","80","79","100","1","0","","","","","test","fear","fear","f","true"
"null","<div style=""font-size:60px;"">+</div>","null","html-keyboard-response","59","73211","0.0-9.0-0.25","3ov5wv","Tue Feb 08 2022 08:56:10 GMT+0100 (Centraleuropæisk normaltid)","2022","2","8","8","56","10","vl00","21","female","right","80","79","100","1","0","","","","","fixation","","","",""
"415.19999980926514","img/image_stim_h_stroop.png","70","image-keyboard-response","60","73627","0.0-9.0-1.25","3ov5wv","Tue Feb 08 2022 08:56:10 GMT+0100 (Centraleuropæisk normaltid)","2022","2","8","8","56","10","vl00","21","female","right","80","79","100","1","0","","","","","test","happy","fear","h","false"
"null","<div style=""font-size:60px;"">+</div>","null","html-keyboard-response","61","73890","0.0-9.0-0.26","3ov5wv","Tue Feb 08 2022 08:56:10 GMT+0100 (Centraleuropæisk normaltid)","2022","2","8","8","56","10","vl00","21","female","right","80","79","100","1","0","","","","","fixation","","","",""
"656.7999999523163","img/image_stim_h.png","72","image-keyboard-response","62","74548","0.0-9.0-1.26","3ov5wv","Tue Feb 08 2022 08:56:10 GMT+0100 (Centraleuropæisk normaltid)","2022","2","8","8","56","10","vl00","21","female","right","80","79","100","1","0","","","","","test","happy","happy","h","true"
"null","<div style=""font-size:60px;"">+</div>","null","html-keyboard-response","63","76552","0.0-9.0-0.27","3ov5wv","Tue Feb 08 2022 08:56:10 GMT+0100 (Centraleuropæisk normaltid)","2022","2","8","8","56","10","vl00","21","female","right","80","79","100","1","0","","","","","fixation","","","",""
"602.5","img/image_stim_f_stroop.png","70","image-keyboard-response","64","77155","0.0-9.0-1.27","3ov5wv","Tue Feb 08 2022 08:56:10 GMT+0100 (Centraleuropæisk normaltid)","2022","2","8","8","56","10","vl00","21","female","right","80","79","100","1","0","","","","","test","fear","happy","f","true"
"null","<div style=""font-size:60px;"">+</div>","null","html-keyboard-response","65","77660","0.0-9.0-0.28","3ov5wv","Tue Feb 08 2022 08:56:10 GMT+0100 (Centraleuropæisk normaltid)","2022","2","8","8","56","10","vl00","21","female","right","80","79","100","1","0","","","","","fixation","","","",""
"672.1000001430511","img/image_stim_f.png","70","image-keyboard-response","66","78333","0.0-9.0-1.28","3ov5wv","Tue Feb 08 2022 08:56:10 GMT+0100 (Centraleuropæisk normaltid)","2022","2","8","8","56","10","vl00","21","female","right","80","79","100","1","0","","","","","test","fear","fear","f","true"
"null","<div style=""font-size:60px;"">+</div>","null","html-keyboard-response","67","80089","0.0-9.0-0.29","3ov5wv","Tue Feb 08 2022 08:56:10 GMT+0100 (Centraleuropæisk normaltid)","2022","2","8","8","56","10","vl00","21","female","right","80","79","100","1","0","","","","","fixation","","","",""
"383.5","img/image_stim_h_stroop.png","72","image-keyboard-response","68","80473","0.0-9.0-1.29","3ov5wv","Tue Feb 08 2022 08:56:10 GMT+0100 (Centraleuropæisk normaltid)","2022","2","8","8","56","10","vl00","21","female","right","80","79","100","1","0","","","","","test","happy","fear","h","true"
"null","<div style=""font-size:60px;"">+</div>","null","html-keyboard-response","69","81992","0.0-9.0-0.30","3ov5wv","Tue Feb 08 2022 08:56:10 GMT+0100 (Centraleuropæisk normaltid)","2022","2","8","8","56","10","vl00","21","female","right","80","79","100","1","0","","","","","fixation","","","",""
"520.3999998569489","img/image_stim_f_stroop.png","70","image-keyboard-response","70","82515","0.0-9.0-1.30","3ov5wv","Tue Feb 08 2022 08:56:10 GMT+0100 (Centraleuropæisk normaltid)","2022","2","8","8","56","10","vl00","21","female","right","80","79","100","1","0","","","","","test","fear","happy","f","true"
"null","<div style=""font-size:60px;"">+</div>","null","html-keyboard-response","71","83526","0.0-9.0-0.31","3ov5wv","Tue Feb 08 2022 08:56:10 GMT+0100 (Centraleuropæisk normaltid)","2022","2","8","8","56","10","vl00","21","female","right","80","79","100","1","0","","","","","fixation","","","",""
"507.80000019073486","img/image_stim_h.png","72","image-keyboard-response","72","84035","0.0-9.0-1.31","3ov5wv","Tue Feb 08 2022 08:56:10 GMT+0100 (Centraleuropæisk normaltid)","2022","2","8","8","56","10","vl00","21","female","right","80","79","100","1","0","","","","","test","happy","happy","h","true"
"null","<div style=""font-size:60px;"">+</div>","null","html-keyboard-response","73","85789","0.0-9.0-0.32","3ov5wv","Tue Feb 08 2022 08:56:10 GMT+0100 (Centraleuropæisk normaltid)","2022","2","8","8","56","10","vl00","21","female","right","80","79","100","1","0","","","","","fixation","","","",""
"522.5999999046326","img/image_stim_f.png","70","image-keyboard-response","74","86315","0.0-9.0-1.32","3ov5wv","Tue Feb 08 2022 08:56:10 GMT+0100 (Centraleuropæisk normaltid)","2022","2","8","8","56","10","vl00","21","female","right","80","79","100","1","0","","","","","test","fear","fear","f","true"
"null","<div style=""font-size:60px;"">+</div>","null","html-keyboard-response","75","86832","0.0-9.0-0.33","3ov5wv","Tue Feb 08 2022 08:56:10 GMT+0100 (Centraleuropæisk normaltid)","2022","2","8","8","56","10","vl00","21","female","right","80","79","100","1","0","","","","","fixation","","","",""
"680.9000000953674","img/image_stim_h_stroop.png","72","image-keyboard-response","76","87515","0.0-9.0-1.33","3ov5wv","Tue Feb 08 2022 08:56:10 GMT+0100 (Centraleuropæisk normaltid)","2022","2","8","8","56","10","vl00","21","female","right","80","79","100","1","0","","","","","test","happy","fear","h","true"
"null","<div style=""font-size:60px;"">+</div>","null","html-keyboard-response","77","88283","0.0-9.0-0.34","3ov5wv","Tue Feb 08 2022 08:56:10 GMT+0100 (Centraleuropæisk normaltid)","2022","2","8","8","56","10","vl00","21","female","right","80","79","100","1","0","","","","","fixation","","","",""
"513.7999999523163","img/image_stim_h.png","72","image-keyboard-response","78","88799","0.0-9.0-1.34","3ov5wv","Tue Feb 08 2022 08:56:10 GMT+0100 (Centraleuropæisk normaltid)","2022","2","8","8","56","10","vl00","21","female","right","80","79","100","1","0","","","","","test","happy","happy","h","true"
"null","<div style=""font-size:60px;"">+</div>","null","html-keyboard-response","79","90312","0.0-9.0-0.35","3ov5wv","Tue Feb 08 2022 08:56:10 GMT+0100 (Centraleuropæisk normaltid)","2022","2","8","8","56","10","vl00","21","female","right","80","79","100","1","0","","","","","fixation","","","",""
"524.0999999046326","img/image_stim_f_stroop.png","70","image-keyboard-response","80","90839","0.0-9.0-1.35","3ov5wv","Tue Feb 08 2022 08:56:10 GMT+0100 (Centraleuropæisk normaltid)","2022","2","8","8","56","10","vl00","21","female","right","80","79","100","1","0","","","","","test","fear","happy","f","true"
