"rt","stimulus","key_press","trial_type","trial_index","time_elapsed","internal_node_id","exp_id","Time","year","month","date","hour","minute","seconds","id","age","Gender","Handedness","mood","fresh","hunger","H_since_Sleep","H_since_Eat","responses","question_order","slider_start","response","test_part","face","word","correct_response","correct"
"21292.69500001101","<p>Welcome to this experiment on daily rhythms and cognition.</p><p>First you will be asked some questions about yourself.</p><p>Then a short experiment will measure your response time.</p><p>Take the test at different times of the day/night.</p><p>The test is anonymous, but comparing your data across time is important.</p><p>Therefore, please make up and remember a personal ID (two letters+ two numbers).</p><p>Use this ID whenever taking the test.</p><p><strong>Press any key to begin.</strong></p>","32","html-keyboard-response","0","21300","0.0-0.0","vbrmp6","Thu Feb 18 2021 13:48:12 GMT+0100 (Centraleuropæisk normaltid)","2021","2","18","13","48","12","mk97","24","male","left","53","54","56","5","0","","","","","","","","",""
"4757.565000007162","","","survey-text","1","26079","0.0-1.0","vbrmp6","Thu Feb 18 2021 13:48:12 GMT+0100 (Centraleuropæisk normaltid)","2021","2","18","13","48","12","mk97","24","male","left","53","54","56","5","0","{""Q0"":""mk97""}","","","","","","","",""
"4315.11500000488","","","survey-text","2","30400","0.0-2.0","vbrmp6","Thu Feb 18 2021 13:48:12 GMT+0100 (Centraleuropæisk normaltid)","2021","2","18","13","48","12","mk97","24","male","left","53","54","56","5","0","{""Q0"":""24""}","","","","","","","",""
"4745.719999977155","","","survey-multi-select","3","35158","0.0-3.0","vbrmp6","Thu Feb 18 2021 13:48:12 GMT+0100 (Centraleuropæisk normaltid)","2021","2","18","13","48","12","mk97","24","male","left","53","54","56","5","0","{""Gender"":[""male""],""Hand"":[""left""]}","[0,1]","","","","","","",""
"5517.149999999674","<p>How Sad/Angry or Happy are you right now?</p>","","html-slider-response","4","40682","0.0-4.0","vbrmp6","Thu Feb 18 2021 13:48:12 GMT+0100 (Centraleuropæisk normaltid)","2021","2","18","13","48","12","mk97","24","male","left","53","54","56","5","0","","","50","53","","","","",""
"2969.974999985425","<p>How Tired/Sleepy/Distracted or Fresh/Awake/Alert are you right now?</p>","","html-slider-response","5","43655","0.0-5.0","vbrmp6","Thu Feb 18 2021 13:48:12 GMT+0100 (Centraleuropæisk normaltid)","2021","2","18","13","48","12","mk97","24","male","left","53","54","56","5","0","","","50","54","","","","",""
"3184.3600000138395","<p>How Hungry or Satiated are you right now?</p>","","html-slider-response","6","46843","0.0-6.0","vbrmp6","Thu Feb 18 2021 13:48:12 GMT+0100 (Centraleuropæisk normaltid)","2021","2","18","13","48","12","mk97","24","male","left","53","54","56","5","0","","","50","56","","","","",""
"11446.779999998398","","","survey-multi-select","7","58345","0.0-7.0","vbrmp6","Thu Feb 18 2021 13:48:12 GMT+0100 (Centraleuropæisk normaltid)","2021","2","18","13","48","12","mk97","24","male","left","53","54","56","5","0","{""Sleep"":[""5""],""Eat"":[""0""]}","[0,1]","","","","","","",""
"2503.259999997681","<p>In this experiment, a face and a word will appear in the center of the screen.</p><p>If the face is <strong>happy</strong>, press the letter <strong>H</strong> with <strong>right</strong> index finger.</p><p>If the face is <strong>fearful</strong>, press the letter <strong>F</strong> with <strong>left</strong> index finger.</p><p><strong>Ignore the written words</strong>. Respond as fast as possible while being correct. </p><div style='width: 900px;'><div style='float: left;'><img src='img/stimuli_stroop_happy.png'></img><p class='small'><strong>Press the H key for happy faces</strong></p></div><div class='float: right;'><img src='img/stimuli_stroop_fear.png'></img><p class='small'><strong>Press the F key for faces with fear</strong></p></div></div><p>If the screen turns blank, press <strong>SPACE</strong></p><p><strong>Press any key to begin.</strong></p>","32","html-keyboard-response","8","60855","0.0-8.0","vbrmp6","Thu Feb 18 2021 13:48:12 GMT+0100 (Centraleuropæisk normaltid)","2021","2","18","13","48","12","mk97","24","male","left","53","54","56","5","0","","","","","","","","",""
"null","<div style=""font-size:60px;"">+</div>","null","html-keyboard-response","9","64112","0.0-9.0-0.0","vbrmp6","Thu Feb 18 2021 13:48:12 GMT+0100 (Centraleuropæisk normaltid)","2021","2","18","13","48","12","mk97","24","male","left","53","54","56","5","0","","","","","fixation","","","",""
"556.9350000005215","img/image_stim_h_stroop.png","72","image-keyboard-response","10","64714","0.0-9.0-1.0","vbrmp6","Thu Feb 18 2021 13:48:12 GMT+0100 (Centraleuropæisk normaltid)","2021","2","18","13","48","12","mk97","24","male","left","53","54","56","5","0","","","","","test","happy","fear","h","true"
"null","<div style=""font-size:60px;"">+</div>","null","html-keyboard-response","11","65722","0.0-9.0-0.1","vbrmp6","Thu Feb 18 2021 13:48:12 GMT+0100 (Centraleuropæisk normaltid)","2021","2","18","13","48","12","mk97","24","male","left","53","54","56","5","0","","","","","fixation","","","",""
"498.87999999918975","img/image_stim_f.png","70","image-keyboard-response","12","66228","0.0-9.0-1.1","vbrmp6","Thu Feb 18 2021 13:48:12 GMT+0100 (Centraleuropæisk normaltid)","2021","2","18","13","48","12","mk97","24","male","left","53","54","56","5","0","","","","","test","fear","fear","f","true"
"null","<div style=""font-size:60px;"">+</div>","null","html-keyboard-response","13","68239","0.0-9.0-0.2","vbrmp6","Thu Feb 18 2021 13:48:12 GMT+0100 (Centraleuropæisk normaltid)","2021","2","18","13","48","12","mk97","24","male","left","53","54","56","5","0","","","","","fixation","","","",""
"435.0799999956507","img/image_stim_f_stroop.png","70","image-keyboard-response","14","68683","0.0-9.0-1.2","vbrmp6","Thu Feb 18 2021 13:48:12 GMT+0100 (Centraleuropæisk normaltid)","2021","2","18","13","48","12","mk97","24","male","left","53","54","56","5","0","","","","","test","fear","happy","f","true"
"null","<div style=""font-size:60px;"">+</div>","null","html-keyboard-response","15","70193","0.0-9.0-0.3","vbrmp6","Thu Feb 18 2021 13:48:12 GMT+0100 (Centraleuropæisk normaltid)","2021","2","18","13","48","12","mk97","24","male","left","53","54","56","5","0","","","","","fixation","","","",""
"470.00499998102896","img/image_stim_h.png","72","image-keyboard-response","16","70671","0.0-9.0-1.3","vbrmp6","Thu Feb 18 2021 13:48:12 GMT+0100 (Centraleuropæisk normaltid)","2021","2","18","13","48","12","mk97","24","male","left","53","54","56","5","0","","","","","test","happy","happy","h","true"
"null","<div style=""font-size:60px;"">+</div>","null","html-keyboard-response","17","72438","0.0-9.0-0.4","vbrmp6","Thu Feb 18 2021 13:48:12 GMT+0100 (Centraleuropæisk normaltid)","2021","2","18","13","48","12","mk97","24","male","left","53","54","56","5","0","","","","","fixation","","","",""
"380.73000000440516","img/image_stim_h_stroop.png","72","image-keyboard-response","18","72827","0.0-9.0-1.4","vbrmp6","Thu Feb 18 2021 13:48:12 GMT+0100 (Centraleuropæisk normaltid)","2021","2","18","13","48","12","mk97","24","male","left","53","54","56","5","0","","","","","test","happy","fear","h","true"
"null","<div style=""font-size:60px;"">+</div>","null","html-keyboard-response","19","74841","0.0-9.0-0.5","vbrmp6","Thu Feb 18 2021 13:48:12 GMT+0100 (Centraleuropæisk normaltid)","2021","2","18","13","48","12","mk97","24","male","left","53","54","56","5","0","","","","","fixation","","","",""
"422.3000000056345","img/image_stim_h.png","72","image-keyboard-response","20","75269","0.0-9.0-1.5","vbrmp6","Thu Feb 18 2021 13:48:12 GMT+0100 (Centraleuropæisk normaltid)","2021","2","18","13","48","12","mk97","24","male","left","53","54","56","5","0","","","","","test","happy","happy","h","true"
"null","<div style=""font-size:60px;"">+</div>","null","html-keyboard-response","21","75778","0.0-9.0-0.6","vbrmp6","Thu Feb 18 2021 13:48:12 GMT+0100 (Centraleuropæisk normaltid)","2021","2","18","13","48","12","mk97","24","male","left","53","54","56","5","0","","","","","fixation","","","",""
"476.3600000005681","img/image_stim_f.png","70","image-keyboard-response","22","76264","0.0-9.0-1.6","vbrmp6","Thu Feb 18 2021 13:48:12 GMT+0100 (Centraleuropæisk normaltid)","2021","2","18","13","48","12","mk97","24","male","left","53","54","56","5","0","","","","","test","fear","fear","f","true"
"null","<div style=""font-size:60px;"">+</div>","null","html-keyboard-response","23","77530","0.0-9.0-0.7","vbrmp6","Thu Feb 18 2021 13:48:12 GMT+0100 (Centraleuropæisk normaltid)","2021","2","18","13","48","12","mk97","24","male","left","53","54","56","5","0","","","","","fixation","","","",""
"407.11000000010245","img/image_stim_f_stroop.png","72","image-keyboard-response","24","77946","0.0-9.0-1.7","vbrmp6","Thu Feb 18 2021 13:48:12 GMT+0100 (Centraleuropæisk normaltid)","2021","2","18","13","48","12","mk97","24","male","left","53","54","56","5","0","","","","","test","fear","happy","f","false"
"null","<div style=""font-size:60px;"">+</div>","null","html-keyboard-response","25","79207","0.0-9.0-0.8","vbrmp6","Thu Feb 18 2021 13:48:12 GMT+0100 (Centraleuropæisk normaltid)","2021","2","18","13","48","12","mk97","24","male","left","53","54","56","5","0","","","","","fixation","","","",""
"620.7799999974668","img/image_stim_h.png","72","image-keyboard-response","26","79833","0.0-9.0-1.8","vbrmp6","Thu Feb 18 2021 13:48:12 GMT+0100 (Centraleuropæisk normaltid)","2021","2","18","13","48","12","mk97","24","male","left","53","54","56","5","0","","","","","test","happy","happy","h","true"
"null","<div style=""font-size:60px;"">+</div>","null","html-keyboard-response","27","81094","0.0-9.0-0.9","vbrmp6","Thu Feb 18 2021 13:48:12 GMT+0100 (Centraleuropæisk normaltid)","2021","2","18","13","48","12","mk97","24","male","left","53","54","56","5","0","","","","","fixation","","","",""
"842.5350000034086","img/image_stim_h_stroop.png","72","image-keyboard-response","28","81942","0.0-9.0-1.9","vbrmp6","Thu Feb 18 2021 13:48:12 GMT+0100 (Centraleuropæisk normaltid)","2021","2","18","13","48","12","mk97","24","male","left","53","54","56","5","0","","","","","test","happy","fear","h","true"
"null","<div style=""font-size:60px;"">+</div>","null","html-keyboard-response","29","83455","0.0-9.0-0.10","vbrmp6","Thu Feb 18 2021 13:48:12 GMT+0100 (Centraleuropæisk normaltid)","2021","2","18","13","48","12","mk97","24","male","left","53","54","56","5","0","","","","","fixation","","","",""
"500.1549999869894","img/image_stim_f_stroop.png","70","image-keyboard-response","30","83960","0.0-9.0-1.10","vbrmp6","Thu Feb 18 2021 13:48:12 GMT+0100 (Centraleuropæisk normaltid)","2021","2","18","13","48","12","mk97","24","male","left","53","54","56","5","0","","","","","test","fear","happy","f","true"
"null","<div style=""font-size:60px;"">+</div>","null","html-keyboard-response","31","85972","0.0-9.0-0.11","vbrmp6","Thu Feb 18 2021 13:48:12 GMT+0100 (Centraleuropæisk normaltid)","2021","2","18","13","48","12","mk97","24","male","left","53","54","56","5","0","","","","","fixation","","","",""
"447.37999999779277","img/image_stim_f.png","70","image-keyboard-response","32","86429","0.0-9.0-1.11","vbrmp6","Thu Feb 18 2021 13:48:12 GMT+0100 (Centraleuropæisk normaltid)","2021","2","18","13","48","12","mk97","24","male","left","53","54","56","5","0","","","","","test","fear","fear","f","true"
"null","<div style=""font-size:60px;"">+</div>","null","html-keyboard-response","33","87689","0.0-9.0-0.12","vbrmp6","Thu Feb 18 2021 13:48:12 GMT+0100 (Centraleuropæisk normaltid)","2021","2","18","13","48","12","mk97","24","male","left","53","54","56","5","0","","","","","fixation","","","",""
"480.8750000083819","img/image_stim_h_stroop.png","72","image-keyboard-response","34","88179","0.0-9.0-1.12","vbrmp6","Thu Feb 18 2021 13:48:12 GMT+0100 (Centraleuropæisk normaltid)","2021","2","18","13","48","12","mk97","24","male","left","53","54","56","5","0","","","","","test","happy","fear","h","true"
"null","<div style=""font-size:60px;"">+</div>","null","html-keyboard-response","35","88439","0.0-9.0-0.13","vbrmp6","Thu Feb 18 2021 13:48:12 GMT+0100 (Centraleuropæisk normaltid)","2021","2","18","13","48","12","mk97","24","male","left","53","54","56","5","0","","","","","fixation","","","",""
"581.3699999998789","img/image_stim_f_stroop.png","70","image-keyboard-response","36","89029","0.0-9.0-1.13","vbrmp6","Thu Feb 18 2021 13:48:12 GMT+0100 (Centraleuropæisk normaltid)","2021","2","18","13","48","12","mk97","24","male","left","53","54","56","5","0","","","","","test","fear","happy","f","true"
"null","<div style=""font-size:60px;"">+</div>","null","html-keyboard-response","37","89789","0.0-9.0-0.14","vbrmp6","Thu Feb 18 2021 13:48:12 GMT+0100 (Centraleuropæisk normaltid)","2021","2","18","13","48","12","mk97","24","male","left","53","54","56","5","0","","","","","fixation","","","",""
"524.0750000230037","img/image_stim_h.png","72","image-keyboard-response","38","90320","0.0-9.0-1.14","vbrmp6","Thu Feb 18 2021 13:48:12 GMT+0100 (Centraleuropæisk normaltid)","2021","2","18","13","48","12","mk97","24","male","left","53","54","56","5","0","","","","","test","happy","happy","h","true"
"null","<div style=""font-size:60px;"">+</div>","null","html-keyboard-response","39","90584","0.0-9.0-0.15","vbrmp6","Thu Feb 18 2021 13:48:12 GMT+0100 (Centraleuropæisk normaltid)","2021","2","18","13","48","12","mk97","24","male","left","53","54","56","5","0","","","","","fixation","","","",""
"647.0350000017788","img/image_stim_f.png","70","image-keyboard-response","40","91240","0.0-9.0-1.15","vbrmp6","Thu Feb 18 2021 13:48:12 GMT+0100 (Centraleuropæisk normaltid)","2021","2","18","13","48","12","mk97","24","male","left","53","54","56","5","0","","","","","test","fear","fear","f","true"
"null","<div style=""font-size:60px;"">+</div>","null","html-keyboard-response","41","91502","0.0-9.0-0.16","vbrmp6","Thu Feb 18 2021 13:48:12 GMT+0100 (Centraleuropæisk normaltid)","2021","2","18","13","48","12","mk97","24","male","left","53","54","56","5","0","","","","","fixation","","","",""
"595.2450000040699","img/image_stim_h.png","72","image-keyboard-response","42","92104","0.0-9.0-1.16","vbrmp6","Thu Feb 18 2021 13:48:12 GMT+0100 (Centraleuropæisk normaltid)","2021","2","18","13","48","12","mk97","24","male","left","53","54","56","5","0","","","","","test","happy","happy","h","true"
"null","<div style=""font-size:60px;"">+</div>","null","html-keyboard-response","43","93866","0.0-9.0-0.17","vbrmp6","Thu Feb 18 2021 13:48:12 GMT+0100 (Centraleuropæisk normaltid)","2021","2","18","13","48","12","mk97","24","male","left","53","54","56","5","0","","","","","fixation","","","",""
"573.8800000108313","img/image_stim_f_stroop.png","70","image-keyboard-response","44","94447","0.0-9.0-1.17","vbrmp6","Thu Feb 18 2021 13:48:12 GMT+0100 (Centraleuropæisk normaltid)","2021","2","18","13","48","12","mk97","24","male","left","53","54","56","5","0","","","","","test","fear","happy","f","true"
"null","<div style=""font-size:60px;"">+</div>","null","html-keyboard-response","45","94713","0.0-9.0-0.18","vbrmp6","Thu Feb 18 2021 13:48:12 GMT+0100 (Centraleuropæisk normaltid)","2021","2","18","13","48","12","mk97","24","male","left","53","54","56","5","0","","","","","fixation","","","",""
"598.1399999873247","img/image_stim_f.png","70","image-keyboard-response","46","95319","0.0-9.0-1.18","vbrmp6","Thu Feb 18 2021 13:48:12 GMT+0100 (Centraleuropæisk normaltid)","2021","2","18","13","48","12","mk97","24","male","left","53","54","56","5","0","","","","","test","fear","fear","f","true"
"null","<div style=""font-size:60px;"">+</div>","null","html-keyboard-response","47","97331","0.0-9.0-0.19","vbrmp6","Thu Feb 18 2021 13:48:12 GMT+0100 (Centraleuropæisk normaltid)","2021","2","18","13","48","12","mk97","24","male","left","53","54","56","5","0","","","","","fixation","","","",""
"592.3449999827426","img/image_stim_h_stroop.png","72","image-keyboard-response","48","97929","0.0-9.0-1.19","vbrmp6","Thu Feb 18 2021 13:48:12 GMT+0100 (Centraleuropæisk normaltid)","2021","2","18","13","48","12","mk97","24","male","left","53","54","56","5","0","","","","","test","happy","fear","h","true"
"null","<div style=""font-size:60px;"">+</div>","null","html-keyboard-response","49","99940","0.0-9.0-0.20","vbrmp6","Thu Feb 18 2021 13:48:12 GMT+0100 (Centraleuropæisk normaltid)","2021","2","18","13","48","12","mk97","24","male","left","53","54","56","5","0","","","","","fixation","","","",""
"478.9900000032503","img/image_stim_h.png","72","image-keyboard-response","50","100431","0.0-9.0-1.20","vbrmp6","Thu Feb 18 2021 13:48:12 GMT+0100 (Centraleuropæisk normaltid)","2021","2","18","13","48","12","mk97","24","male","left","53","54","56","5","0","","","","","test","happy","happy","h","true"
"null","<div style=""font-size:60px;"">+</div>","null","html-keyboard-response","51","101197","0.0-9.0-0.21","vbrmp6","Thu Feb 18 2021 13:48:12 GMT+0100 (Centraleuropæisk normaltid)","2021","2","18","13","48","12","mk97","24","male","left","53","54","56","5","0","","","","","fixation","","","",""
"582.8699999838136","img/image_stim_f.png","70","image-keyboard-response","52","101787","0.0-9.0-1.21","vbrmp6","Thu Feb 18 2021 13:48:12 GMT+0100 (Centraleuropæisk normaltid)","2021","2","18","13","48","12","mk97","24","male","left","53","54","56","5","0","","","","","test","fear","fear","f","true"
"null","<div style=""font-size:60px;"">+</div>","null","html-keyboard-response","53","103300","0.0-9.0-0.22","vbrmp6","Thu Feb 18 2021 13:48:12 GMT+0100 (Centraleuropæisk normaltid)","2021","2","18","13","48","12","mk97","24","male","left","53","54","56","5","0","","","","","fixation","","","",""
"576.2999999860767","img/image_stim_f_stroop.png","70","image-keyboard-response","54","103885","0.0-9.0-1.22","vbrmp6","Thu Feb 18 2021 13:48:12 GMT+0100 (Centraleuropæisk normaltid)","2021","2","18","13","48","12","mk97","24","male","left","53","54","56","5","0","","","","","test","fear","happy","f","true"
"null","<div style=""font-size:60px;"">+</div>","null","html-keyboard-response","55","104147","0.0-9.0-0.23","vbrmp6","Thu Feb 18 2021 13:48:12 GMT+0100 (Centraleuropæisk normaltid)","2021","2","18","13","48","12","mk97","24","male","left","53","54","56","5","0","","","","","fixation","","","",""
"617.9849999898579","img/image_stim_h_stroop.png","72","image-keyboard-response","56","104774","0.0-9.0-1.23","vbrmp6","Thu Feb 18 2021 13:48:12 GMT+0100 (Centraleuropæisk normaltid)","2021","2","18","13","48","12","mk97","24","male","left","53","54","56","5","0","","","","","test","happy","fear","h","true"
"null","<div style=""font-size:60px;"">+</div>","null","html-keyboard-response","57","105538","0.0-9.0-0.24","vbrmp6","Thu Feb 18 2021 13:48:12 GMT+0100 (Centraleuropæisk normaltid)","2021","2","18","13","48","12","mk97","24","male","left","53","54","56","5","0","","","","","fixation","","","",""
"492.7650000026915","img/image_stim_h_stroop.png","72","image-keyboard-response","58","106039","0.0-9.0-1.24","vbrmp6","Thu Feb 18 2021 13:48:12 GMT+0100 (Centraleuropæisk normaltid)","2021","2","18","13","48","12","mk97","24","male","left","53","54","56","5","0","","","","","test","happy","fear","h","true"
"null","<div style=""font-size:60px;"">+</div>","null","html-keyboard-response","59","107053","0.0-9.0-0.25","vbrmp6","Thu Feb 18 2021 13:48:12 GMT+0100 (Centraleuropæisk normaltid)","2021","2","18","13","48","12","mk97","24","male","left","53","54","56","5","0","","","","","fixation","","","",""
"482.5399999972433","img/image_stim_f.png","70","image-keyboard-response","60","107542","0.0-9.0-1.25","vbrmp6","Thu Feb 18 2021 13:48:12 GMT+0100 (Centraleuropæisk normaltid)","2021","2","18","13","48","12","mk97","24","male","left","53","54","56","5","0","","","","","test","fear","fear","f","true"
"null","<div style=""font-size:60px;"">+</div>","null","html-keyboard-response","61","108555","0.0-9.0-0.26","vbrmp6","Thu Feb 18 2021 13:48:12 GMT+0100 (Centraleuropæisk normaltid)","2021","2","18","13","48","12","mk97","24","male","left","53","54","56","5","0","","","","","fixation","","","",""
"833.0299999797717","img/image_stim_f_stroop.png","70","image-keyboard-response","62","109395","0.0-9.0-1.26","vbrmp6","Thu Feb 18 2021 13:48:12 GMT+0100 (Centraleuropæisk normaltid)","2021","2","18","13","48","12","mk97","24","male","left","53","54","56","5","0","","","","","test","fear","happy","f","true"
"null","<div style=""font-size:60px;"">+</div>","null","html-keyboard-response","63","111410","0.0-9.0-0.27","vbrmp6","Thu Feb 18 2021 13:48:12 GMT+0100 (Centraleuropæisk normaltid)","2021","2","18","13","48","12","mk97","24","male","left","53","54","56","5","0","","","","","fixation","","","",""
"551.0950000025332","img/image_stim_h.png","72","image-keyboard-response","64","111966","0.0-9.0-1.27","vbrmp6","Thu Feb 18 2021 13:48:12 GMT+0100 (Centraleuropæisk normaltid)","2021","2","18","13","48","12","mk97","24","male","left","53","54","56","5","0","","","","","test","happy","happy","h","true"
"null","<div style=""font-size:60px;"">+</div>","null","html-keyboard-response","65","113236","0.0-9.0-0.28","vbrmp6","Thu Feb 18 2021 13:48:12 GMT+0100 (Centraleuropæisk normaltid)","2021","2","18","13","48","12","mk97","24","male","left","53","54","56","5","0","","","","","fixation","","","",""
"491.5400000172667","img/image_stim_h.png","72","image-keyboard-response","66","113736","0.0-9.0-1.28","vbrmp6","Thu Feb 18 2021 13:48:12 GMT+0100 (Centraleuropæisk normaltid)","2021","2","18","13","48","12","mk97","24","male","left","53","54","56","5","0","","","","","test","happy","happy","h","true"
"null","<div style=""font-size:60px;"">+</div>","null","html-keyboard-response","67","115001","0.0-9.0-0.29","vbrmp6","Thu Feb 18 2021 13:48:12 GMT+0100 (Centraleuropæisk normaltid)","2021","2","18","13","48","12","mk97","24","male","left","53","54","56","5","0","","","","","fixation","","","",""
"377.86000000778586","img/image_stim_h_stroop.png","72","image-keyboard-response","68","115383","0.0-9.0-1.29","vbrmp6","Thu Feb 18 2021 13:48:12 GMT+0100 (Centraleuropæisk normaltid)","2021","2","18","13","48","12","mk97","24","male","left","53","54","56","5","0","","","","","test","happy","fear","h","true"
"null","<div style=""font-size:60px;"">+</div>","null","html-keyboard-response","69","116658","0.0-9.0-0.30","vbrmp6","Thu Feb 18 2021 13:48:12 GMT+0100 (Centraleuropæisk normaltid)","2021","2","18","13","48","12","mk97","24","male","left","53","54","56","5","0","","","","","fixation","","","",""
"589.1500000143424","img/image_stim_f_stroop.png","70","image-keyboard-response","70","117255","0.0-9.0-1.30","vbrmp6","Thu Feb 18 2021 13:48:12 GMT+0100 (Centraleuropæisk normaltid)","2021","2","18","13","48","12","mk97","24","male","left","53","54","56","5","0","","","","","test","fear","happy","f","true"
"null","<div style=""font-size:60px;"">+</div>","null","html-keyboard-response","71","118769","0.0-9.0-0.31","vbrmp6","Thu Feb 18 2021 13:48:12 GMT+0100 (Centraleuropæisk normaltid)","2021","2","18","13","48","12","mk97","24","male","left","53","54","56","5","0","","","","","fixation","","","",""
"495.36000000080094","img/image_stim_f.png","70","image-keyboard-response","72","119271","0.0-9.0-1.31","vbrmp6","Thu Feb 18 2021 13:48:12 GMT+0100 (Centraleuropæisk normaltid)","2021","2","18","13","48","12","mk97","24","male","left","53","54","56","5","0","","","","","test","fear","fear","f","true"
"null","<div style=""font-size:60px;"">+</div>","null","html-keyboard-response","73","120035","0.0-9.0-0.32","vbrmp6","Thu Feb 18 2021 13:48:12 GMT+0100 (Centraleuropæisk normaltid)","2021","2","18","13","48","12","mk97","24","male","left","53","54","56","5","0","","","","","fixation","","","",""
"522.9350000154227","img/image_stim_h_stroop.png","72","image-keyboard-response","74","120563","0.0-9.0-1.32","vbrmp6","Thu Feb 18 2021 13:48:12 GMT+0100 (Centraleuropæisk normaltid)","2021","2","18","13","48","12","mk97","24","male","left","53","54","56","5","0","","","","","test","happy","fear","h","true"
"null","<div style=""font-size:60px;"">+</div>","null","html-keyboard-response","75","120826","0.0-9.0-0.33","vbrmp6","Thu Feb 18 2021 13:48:12 GMT+0100 (Centraleuropæisk normaltid)","2021","2","18","13","48","12","mk97","24","male","left","53","54","56","5","0","","","","","fixation","","","",""
"552.4399999994785","img/image_stim_h.png","72","image-keyboard-response","76","121386","0.0-9.0-1.33","vbrmp6","Thu Feb 18 2021 13:48:12 GMT+0100 (Centraleuropæisk normaltid)","2021","2","18","13","48","12","mk97","24","male","left","53","54","56","5","0","","","","","test","happy","happy","h","true"
"null","<div style=""font-size:60px;"">+</div>","null","html-keyboard-response","77","121653","0.0-9.0-0.34","vbrmp6","Thu Feb 18 2021 13:48:12 GMT+0100 (Centraleuropæisk normaltid)","2021","2","18","13","48","12","mk97","24","male","left","53","54","56","5","0","","","","","fixation","","","",""
"524.6350000088569","img/image_stim_f.png","70","image-keyboard-response","78","122186","0.0-9.0-1.34","vbrmp6","Thu Feb 18 2021 13:48:12 GMT+0100 (Centraleuropæisk normaltid)","2021","2","18","13","48","12","mk97","24","male","left","53","54","56","5","0","","","","","test","fear","fear","f","true"
"null","<div style=""font-size:60px;"">+</div>","null","html-keyboard-response","79","122949","0.0-9.0-0.35","vbrmp6","Thu Feb 18 2021 13:48:12 GMT+0100 (Centraleuropæisk normaltid)","2021","2","18","13","48","12","mk97","24","male","left","53","54","56","5","0","","","","","fixation","","","",""
"512.0049999968614","img/image_stim_f_stroop.png","70","image-keyboard-response","80","123467","0.0-9.0-1.35","vbrmp6","Thu Feb 18 2021 13:48:12 GMT+0100 (Centraleuropæisk normaltid)","2021","2","18","13","48","12","mk97","24","male","left","53","54","56","5","0","","","","","test","fear","happy","f","true"
