"rt","stimulus","key_press","trial_type","trial_index","time_elapsed","internal_node_id","exp_id","Time","year","month","date","hour","minute","seconds","id","age","Gender","Handedness","mood","fresh","hunger","H_since_Sleep","H_since_Eat","responses","question_order","slider_start","response","test_part","face","word","correct_response","correct"
"26342.394999985117","<p>Welcome to this experiment on daily rhythms and cognition.</p><p>First you will be asked some questions about yourself.</p><p>Then a short experiment will measure your response time.</p><p>Take the test at different times of the day/night.</p><p>The test is anonymous, but comparing your data across time is important.</p><p>Therefore, please make up and remember a personal ID (two letters+ two numbers).</p><p>Use this ID whenever taking the test.</p><p><strong>Press any key to begin.</strong></p>","32","html-keyboard-response","0","26344","0.0-0.0","xkxfkx","Wed Feb 10 2021 10:00:51 GMT+0100 (Centraleuropæisk normaltid)","2021","2","10","10","0","51","kv23","23","male","right","50","33","57","2","1","","","","","","","","",""
"13054.974999977276","","","survey-text","1","39407","0.0-1.0","xkxfkx","Wed Feb 10 2021 10:00:51 GMT+0100 (Centraleuropæisk normaltid)","2021","2","10","10","0","51","kv23","23","male","right","50","33","57","2","1","{""Q0"":""kv23""}","","","","","","","",""
"5024.440000008326","","","survey-text","2","44435","0.0-2.0","xkxfkx","Wed Feb 10 2021 10:00:51 GMT+0100 (Centraleuropæisk normaltid)","2021","2","10","10","0","51","kv23","23","male","right","50","33","57","2","1","{""Q0"":""23""}","","","","","","","",""
"4552.055000036489","","","survey-multi-select","3","48994","0.0-3.0","xkxfkx","Wed Feb 10 2021 10:00:51 GMT+0100 (Centraleuropæisk normaltid)","2021","2","10","10","0","51","kv23","23","male","right","50","33","57","2","1","{""Gender"":[""male""],""Hand"":[""right""]}","[0,1]","","","","","","",""
"5864.189999992959","<p>How Sad/Angry or Happy are you right now?</p>","","html-slider-response","4","54861","0.0-4.0","xkxfkx","Wed Feb 10 2021 10:00:51 GMT+0100 (Centraleuropæisk normaltid)","2021","2","10","10","0","51","kv23","23","male","right","50","33","57","2","1","","","50","50","","","","",""
"6301.124999998137","<p>How Tired/Sleepy/Distracted or Fresh/Awake/Alert are you right now?</p>","","html-slider-response","5","61164","0.0-5.0","xkxfkx","Wed Feb 10 2021 10:00:51 GMT+0100 (Centraleuropæisk normaltid)","2021","2","10","10","0","51","kv23","23","male","right","50","33","57","2","1","","","50","33","","","","",""
"7377.635000040755","<p>How Hungry or Satiated are you right now?</p>","","html-slider-response","6","68544","0.0-6.0","xkxfkx","Wed Feb 10 2021 10:00:51 GMT+0100 (Centraleuropæisk normaltid)","2021","2","10","10","0","51","kv23","23","male","right","50","33","57","2","1","","","50","57","","","","",""
"10444.65499999933","","","survey-multi-select","7","79010","0.0-7.0","xkxfkx","Wed Feb 10 2021 10:00:51 GMT+0100 (Centraleuropæisk normaltid)","2021","2","10","10","0","51","kv23","23","male","right","50","33","57","2","1","{""Sleep"":[""2""],""Eat"":[""1""]}","[0,1]","","","","","","",""
"29922.995000029914","<p>In this experiment, a face and a word will appear in the center of the screen.</p><p>If the face is <strong>happy</strong>, press the letter <strong>H</strong> with <strong>right</strong> index finger.</p><p>If the face is <strong>fearful</strong>, press the letter <strong>F</strong> with <strong>left</strong> index finger.</p><p><strong>Ignore the written words</strong>. Respond as fast as possible while being correct. </p><div style='width: 900px;'><div style='float: left;'><img src='img/stimuli_stroop_happy.png'></img><p class='small'><strong>Press the H key for happy faces</strong></p></div><div class='float: right;'><img src='img/stimuli_stroop_fear.png'></img><p class='small'><strong>Press the F key for faces with fear</strong></p></div></div><p>If the screen turns blank, press <strong>SPACE</strong></p><p><strong>Press any key to begin.</strong></p>","32","html-keyboard-response","8","108935","0.0-8.0","xkxfkx","Wed Feb 10 2021 10:00:51 GMT+0100 (Centraleuropæisk normaltid)","2021","2","10","10","0","51","kv23","23","male","right","50","33","57","2","1","","","","","","","","",""
"null","<div style=""font-size:60px;"">+</div>","null","html-keyboard-response","9","112688","0.0-9.0-0.0","xkxfkx","Wed Feb 10 2021 10:00:51 GMT+0100 (Centraleuropæisk normaltid)","2021","2","10","10","0","51","kv23","23","male","right","50","33","57","2","1","","","","","fixation","","","",""
"666.7550000129268","img/image_stim_f_stroop.png","72","image-keyboard-response","10","113368","0.0-9.0-1.0","xkxfkx","Wed Feb 10 2021 10:00:51 GMT+0100 (Centraleuropæisk normaltid)","2021","2","10","10","0","51","kv23","23","male","right","50","33","57","2","1","","","","","test","fear","happy","f","false"
"null","<div style=""font-size:60px;"">+</div>","null","html-keyboard-response","11","113624","0.0-9.0-0.1","xkxfkx","Wed Feb 10 2021 10:00:51 GMT+0100 (Centraleuropæisk normaltid)","2021","2","10","10","0","51","kv23","23","male","right","50","33","57","2","1","","","","","fixation","","","",""
"600.5550000118092","img/image_stim_h_stroop.png","70","image-keyboard-response","12","114226","0.0-9.0-1.1","xkxfkx","Wed Feb 10 2021 10:00:51 GMT+0100 (Centraleuropæisk normaltid)","2021","2","10","10","0","51","kv23","23","male","right","50","33","57","2","1","","","","","test","happy","fear","h","false"
"null","<div style=""font-size:60px;"">+</div>","null","html-keyboard-response","13","115229","0.0-9.0-0.2","xkxfkx","Wed Feb 10 2021 10:00:51 GMT+0100 (Centraleuropæisk normaltid)","2021","2","10","10","0","51","kv23","23","male","right","50","33","57","2","1","","","","","fixation","","","",""
"1606.2600000295788","img/image_stim_f.png","70","image-keyboard-response","14","116837","0.0-9.0-1.2","xkxfkx","Wed Feb 10 2021 10:00:51 GMT+0100 (Centraleuropæisk normaltid)","2021","2","10","10","0","51","kv23","23","male","right","50","33","57","2","1","","","","","test","fear","fear","f","true"
"null","<div style=""font-size:60px;"">+</div>","null","html-keyboard-response","15","117842","0.0-9.0-0.3","xkxfkx","Wed Feb 10 2021 10:00:51 GMT+0100 (Centraleuropæisk normaltid)","2021","2","10","10","0","51","kv23","23","male","right","50","33","57","2","1","","","","","fixation","","","",""
"1881.3000000081956","img/image_stim_h.png","72","image-keyboard-response","16","119725","0.0-9.0-1.3","xkxfkx","Wed Feb 10 2021 10:00:51 GMT+0100 (Centraleuropæisk normaltid)","2021","2","10","10","0","51","kv23","23","male","right","50","33","57","2","1","","","","","test","happy","happy","h","true"
"null","<div style=""font-size:60px;"">+</div>","null","html-keyboard-response","17","121479","0.0-9.0-0.4","xkxfkx","Wed Feb 10 2021 10:00:51 GMT+0100 (Centraleuropæisk normaltid)","2021","2","10","10","0","51","kv23","23","male","right","50","33","57","2","1","","","","","fixation","","","",""
"1013.4650000254624","img/image_stim_f_stroop.png","70","image-keyboard-response","18","122494","0.0-9.0-1.4","xkxfkx","Wed Feb 10 2021 10:00:51 GMT+0100 (Centraleuropæisk normaltid)","2021","2","10","10","0","51","kv23","23","male","right","50","33","57","2","1","","","","","test","fear","happy","f","true"
"null","<div style=""font-size:60px;"">+</div>","null","html-keyboard-response","19","123248","0.0-9.0-0.5","xkxfkx","Wed Feb 10 2021 10:00:51 GMT+0100 (Centraleuropæisk normaltid)","2021","2","10","10","0","51","kv23","23","male","right","50","33","57","2","1","","","","","fixation","","","",""
"856.6199999768287","img/image_stim_h_stroop.png","72","image-keyboard-response","20","124107","0.0-9.0-1.5","xkxfkx","Wed Feb 10 2021 10:00:51 GMT+0100 (Centraleuropæisk normaltid)","2021","2","10","10","0","51","kv23","23","male","right","50","33","57","2","1","","","","","test","happy","fear","h","true"
"null","<div style=""font-size:60px;"">+</div>","null","html-keyboard-response","21","124611","0.0-9.0-0.6","xkxfkx","Wed Feb 10 2021 10:00:51 GMT+0100 (Centraleuropæisk normaltid)","2021","2","10","10","0","51","kv23","23","male","right","50","33","57","2","1","","","","","fixation","","","",""
"812.2849999926984","img/image_stim_f.png","70","image-keyboard-response","22","125425","0.0-9.0-1.6","xkxfkx","Wed Feb 10 2021 10:00:51 GMT+0100 (Centraleuropæisk normaltid)","2021","2","10","10","0","51","kv23","23","male","right","50","33","57","2","1","","","","","test","fear","fear","f","true"
"null","<div style=""font-size:60px;"">+</div>","null","html-keyboard-response","23","126680","0.0-9.0-0.7","xkxfkx","Wed Feb 10 2021 10:00:51 GMT+0100 (Centraleuropæisk normaltid)","2021","2","10","10","0","51","kv23","23","male","right","50","33","57","2","1","","","","","fixation","","","",""
"574.9550000182353","img/image_stim_h.png","72","image-keyboard-response","24","127257","0.0-9.0-1.7","xkxfkx","Wed Feb 10 2021 10:00:51 GMT+0100 (Centraleuropæisk normaltid)","2021","2","10","10","0","51","kv23","23","male","right","50","33","57","2","1","","","","","test","happy","happy","h","true"
"null","<div style=""font-size:60px;"">+</div>","null","html-keyboard-response","25","127760","0.0-9.0-0.8","xkxfkx","Wed Feb 10 2021 10:00:51 GMT+0100 (Centraleuropæisk normaltid)","2021","2","10","10","0","51","kv23","23","male","right","50","33","57","2","1","","","","","fixation","","","",""
"463.96000002278015","img/image_stim_f.png","70","image-keyboard-response","26","128226","0.0-9.0-1.8","xkxfkx","Wed Feb 10 2021 10:00:51 GMT+0100 (Centraleuropæisk normaltid)","2021","2","10","10","0","51","kv23","23","male","right","50","33","57","2","1","","","","","test","fear","fear","f","true"
"null","<div style=""font-size:60px;"">+</div>","null","html-keyboard-response","27","128979","0.0-9.0-0.9","xkxfkx","Wed Feb 10 2021 10:00:51 GMT+0100 (Centraleuropæisk normaltid)","2021","2","10","10","0","51","kv23","23","male","right","50","33","57","2","1","","","","","fixation","","","",""
"641.7450000299141","img/image_stim_h_stroop.png","70","image-keyboard-response","28","129623","0.0-9.0-1.9","xkxfkx","Wed Feb 10 2021 10:00:51 GMT+0100 (Centraleuropæisk normaltid)","2021","2","10","10","0","51","kv23","23","male","right","50","33","57","2","1","","","","","test","happy","fear","h","false"
"null","<div style=""font-size:60px;"">+</div>","null","html-keyboard-response","29","129876","0.0-9.0-0.10","xkxfkx","Wed Feb 10 2021 10:00:51 GMT+0100 (Centraleuropæisk normaltid)","2021","2","10","10","0","51","kv23","23","male","right","50","33","57","2","1","","","","","fixation","","","",""
"909.7900000051595","img/image_stim_h.png","72","image-keyboard-response","30","130788","0.0-9.0-1.10","xkxfkx","Wed Feb 10 2021 10:00:51 GMT+0100 (Centraleuropæisk normaltid)","2021","2","10","10","0","51","kv23","23","male","right","50","33","57","2","1","","","","","test","happy","happy","h","true"
"null","<div style=""font-size:60px;"">+</div>","null","html-keyboard-response","31","131292","0.0-9.0-0.11","xkxfkx","Wed Feb 10 2021 10:00:51 GMT+0100 (Centraleuropæisk normaltid)","2021","2","10","10","0","51","kv23","23","male","right","50","33","57","2","1","","","","","fixation","","","",""
"1061.1900000367314","img/image_stim_f_stroop.png","70","image-keyboard-response","32","132355","0.0-9.0-1.11","xkxfkx","Wed Feb 10 2021 10:00:51 GMT+0100 (Centraleuropæisk normaltid)","2021","2","10","10","0","51","kv23","23","male","right","50","33","57","2","1","","","","","test","fear","happy","f","true"
"null","<div style=""font-size:60px;"">+</div>","null","html-keyboard-response","33","133859","0.0-9.0-0.12","xkxfkx","Wed Feb 10 2021 10:00:51 GMT+0100 (Centraleuropæisk normaltid)","2021","2","10","10","0","51","kv23","23","male","right","50","33","57","2","1","","","","","fixation","","","",""
"700.7100000046194","img/image_stim_f_stroop.png","70","image-keyboard-response","34","134561","0.0-9.0-1.12","xkxfkx","Wed Feb 10 2021 10:00:51 GMT+0100 (Centraleuropæisk normaltid)","2021","2","10","10","0","51","kv23","23","male","right","50","33","57","2","1","","","","","test","fear","happy","f","true"
"null","<div style=""font-size:60px;"">+</div>","null","html-keyboard-response","35","136066","0.0-9.0-0.13","xkxfkx","Wed Feb 10 2021 10:00:51 GMT+0100 (Centraleuropæisk normaltid)","2021","2","10","10","0","51","kv23","23","male","right","50","33","57","2","1","","","","","fixation","","","",""
"586.4749999600463","img/image_stim_f.png","70","image-keyboard-response","36","136654","0.0-9.0-1.13","xkxfkx","Wed Feb 10 2021 10:00:51 GMT+0100 (Centraleuropæisk normaltid)","2021","2","10","10","0","51","kv23","23","male","right","50","33","57","2","1","","","","","test","fear","fear","f","true"
"null","<div style=""font-size:60px;"">+</div>","null","html-keyboard-response","37","137660","0.0-9.0-0.14","xkxfkx","Wed Feb 10 2021 10:00:51 GMT+0100 (Centraleuropæisk normaltid)","2021","2","10","10","0","51","kv23","23","male","right","50","33","57","2","1","","","","","fixation","","","",""
"514.919999986887","img/image_stim_h_stroop.png","72","image-keyboard-response","38","138176","0.0-9.0-1.14","xkxfkx","Wed Feb 10 2021 10:00:51 GMT+0100 (Centraleuropæisk normaltid)","2021","2","10","10","0","51","kv23","23","male","right","50","33","57","2","1","","","","","test","happy","fear","h","true"
"null","<div style=""font-size:60px;"">+</div>","null","html-keyboard-response","39","138930","0.0-9.0-0.15","xkxfkx","Wed Feb 10 2021 10:00:51 GMT+0100 (Centraleuropæisk normaltid)","2021","2","10","10","0","51","kv23","23","male","right","50","33","57","2","1","","","","","fixation","","","",""
"468.0199999711476","img/image_stim_h.png","72","image-keyboard-response","40","139399","0.0-9.0-1.15","xkxfkx","Wed Feb 10 2021 10:00:51 GMT+0100 (Centraleuropæisk normaltid)","2021","2","10","10","0","51","kv23","23","male","right","50","33","57","2","1","","","","","test","happy","happy","h","true"
"null","<div style=""font-size:60px;"">+</div>","null","html-keyboard-response","41","140903","0.0-9.0-0.16","xkxfkx","Wed Feb 10 2021 10:00:51 GMT+0100 (Centraleuropæisk normaltid)","2021","2","10","10","0","51","kv23","23","male","right","50","33","57","2","1","","","","","fixation","","","",""
"387.1900000376627","img/image_stim_f.png","70","image-keyboard-response","42","141292","0.0-9.0-1.16","xkxfkx","Wed Feb 10 2021 10:00:51 GMT+0100 (Centraleuropæisk normaltid)","2021","2","10","10","0","51","kv23","23","male","right","50","33","57","2","1","","","","","test","fear","fear","f","true"
"null","<div style=""font-size:60px;"">+</div>","null","html-keyboard-response","43","142548","0.0-9.0-0.17","xkxfkx","Wed Feb 10 2021 10:00:51 GMT+0100 (Centraleuropæisk normaltid)","2021","2","10","10","0","51","kv23","23","male","right","50","33","57","2","1","","","","","fixation","","","",""
"410.12999997474253","img/image_stim_f_stroop.png","70","image-keyboard-response","44","142960","0.0-9.0-1.17","xkxfkx","Wed Feb 10 2021 10:00:51 GMT+0100 (Centraleuropæisk normaltid)","2021","2","10","10","0","51","kv23","23","male","right","50","33","57","2","1","","","","","test","fear","happy","f","true"
"null","<div style=""font-size:60px;"">+</div>","null","html-keyboard-response","45","144715","0.0-9.0-0.18","xkxfkx","Wed Feb 10 2021 10:00:51 GMT+0100 (Centraleuropæisk normaltid)","2021","2","10","10","0","51","kv23","23","male","right","50","33","57","2","1","","","","","fixation","","","",""
"484.7099999897182","img/image_stim_h.png","72","image-keyboard-response","46","145201","0.0-9.0-1.18","xkxfkx","Wed Feb 10 2021 10:00:51 GMT+0100 (Centraleuropæisk normaltid)","2021","2","10","10","0","51","kv23","23","male","right","50","33","57","2","1","","","","","test","happy","happy","h","true"
"null","<div style=""font-size:60px;"">+</div>","null","html-keyboard-response","47","145706","0.0-9.0-0.19","xkxfkx","Wed Feb 10 2021 10:00:51 GMT+0100 (Centraleuropæisk normaltid)","2021","2","10","10","0","51","kv23","23","male","right","50","33","57","2","1","","","","","fixation","","","",""
"447.0749999745749","img/image_stim_h_stroop.png","72","image-keyboard-response","48","146154","0.0-9.0-1.19","xkxfkx","Wed Feb 10 2021 10:00:51 GMT+0100 (Centraleuropæisk normaltid)","2021","2","10","10","0","51","kv23","23","male","right","50","33","57","2","1","","","","","test","happy","fear","h","true"
"null","<div style=""font-size:60px;"">+</div>","null","html-keyboard-response","49","146409","0.0-9.0-0.20","xkxfkx","Wed Feb 10 2021 10:00:51 GMT+0100 (Centraleuropæisk normaltid)","2021","2","10","10","0","51","kv23","23","male","right","50","33","57","2","1","","","","","fixation","","","",""
"506.74000004073605","img/image_stim_f_stroop.png","70","image-keyboard-response","50","146918","0.0-9.0-1.20","xkxfkx","Wed Feb 10 2021 10:00:51 GMT+0100 (Centraleuropæisk normaltid)","2021","2","10","10","0","51","kv23","23","male","right","50","33","57","2","1","","","","","test","fear","happy","f","true"
"null","<div style=""font-size:60px;"">+</div>","null","html-keyboard-response","51","148921","0.0-9.0-0.21","xkxfkx","Wed Feb 10 2021 10:00:51 GMT+0100 (Centraleuropæisk normaltid)","2021","2","10","10","0","51","kv23","23","male","right","50","33","57","2","1","","","","","fixation","","","",""
"522.2099999664351","img/image_stim_h_stroop.png","72","image-keyboard-response","52","149445","0.0-9.0-1.21","xkxfkx","Wed Feb 10 2021 10:00:51 GMT+0100 (Centraleuropæisk normaltid)","2021","2","10","10","0","51","kv23","23","male","right","50","33","57","2","1","","","","","test","happy","fear","h","true"
"null","<div style=""font-size:60px;"">+</div>","null","html-keyboard-response","53","150200","0.0-9.0-0.22","xkxfkx","Wed Feb 10 2021 10:00:51 GMT+0100 (Centraleuropæisk normaltid)","2021","2","10","10","0","51","kv23","23","male","right","50","33","57","2","1","","","","","fixation","","","",""
"486.3950000144541","img/image_stim_f.png","70","image-keyboard-response","54","150688","0.0-9.0-1.22","xkxfkx","Wed Feb 10 2021 10:00:51 GMT+0100 (Centraleuropæisk normaltid)","2021","2","10","10","0","51","kv23","23","male","right","50","33","57","2","1","","","","","test","fear","fear","f","true"
"null","<div style=""font-size:60px;"">+</div>","null","html-keyboard-response","55","151942","0.0-9.0-0.23","xkxfkx","Wed Feb 10 2021 10:00:51 GMT+0100 (Centraleuropæisk normaltid)","2021","2","10","10","0","51","kv23","23","male","right","50","33","57","2","1","","","","","fixation","","","",""
"611.864999984391","img/image_stim_h.png","72","image-keyboard-response","56","152556","0.0-9.0-1.23","xkxfkx","Wed Feb 10 2021 10:00:51 GMT+0100 (Centraleuropæisk normaltid)","2021","2","10","10","0","51","kv23","23","male","right","50","33","57","2","1","","","","","test","happy","happy","h","true"
"null","<div style=""font-size:60px;"">+</div>","null","html-keyboard-response","57","152811","0.0-9.0-0.24","xkxfkx","Wed Feb 10 2021 10:00:51 GMT+0100 (Centraleuropæisk normaltid)","2021","2","10","10","0","51","kv23","23","male","right","50","33","57","2","1","","","","","fixation","","","",""
"416.75999999279156","img/image_stim_h_stroop.png","72","image-keyboard-response","58","153229","0.0-9.0-1.24","xkxfkx","Wed Feb 10 2021 10:00:51 GMT+0100 (Centraleuropæisk normaltid)","2021","2","10","10","0","51","kv23","23","male","right","50","33","57","2","1","","","","","test","happy","fear","h","true"
"null","<div style=""font-size:60px;"">+</div>","null","html-keyboard-response","59","155235","0.0-9.0-0.25","xkxfkx","Wed Feb 10 2021 10:00:51 GMT+0100 (Centraleuropæisk normaltid)","2021","2","10","10","0","51","kv23","23","male","right","50","33","57","2","1","","","","","fixation","","","",""
"458.96499999798834","img/image_stim_f_stroop.png","70","image-keyboard-response","60","155696","0.0-9.0-1.25","xkxfkx","Wed Feb 10 2021 10:00:51 GMT+0100 (Centraleuropæisk normaltid)","2021","2","10","10","0","51","kv23","23","male","right","50","33","57","2","1","","","","","test","fear","happy","f","true"
"null","<div style=""font-size:60px;"">+</div>","null","html-keyboard-response","61","157703","0.0-9.0-0.26","xkxfkx","Wed Feb 10 2021 10:00:51 GMT+0100 (Centraleuropæisk normaltid)","2021","2","10","10","0","51","kv23","23","male","right","50","33","57","2","1","","","","","fixation","","","",""
"603.1899999943562","img/image_stim_h.png","72","image-keyboard-response","62","158307","0.0-9.0-1.26","xkxfkx","Wed Feb 10 2021 10:00:51 GMT+0100 (Centraleuropæisk normaltid)","2021","2","10","10","0","51","kv23","23","male","right","50","33","57","2","1","","","","","test","happy","happy","h","true"
"null","<div style=""font-size:60px;"">+</div>","null","html-keyboard-response","63","159063","0.0-9.0-0.27","xkxfkx","Wed Feb 10 2021 10:00:51 GMT+0100 (Centraleuropæisk normaltid)","2021","2","10","10","0","51","kv23","23","male","right","50","33","57","2","1","","","","","fixation","","","",""
"526.4249999891035","img/image_stim_f.png","70","image-keyboard-response","64","159591","0.0-9.0-1.27","xkxfkx","Wed Feb 10 2021 10:00:51 GMT+0100 (Centraleuropæisk normaltid)","2021","2","10","10","0","51","kv23","23","male","right","50","33","57","2","1","","","","","test","fear","fear","f","true"
"null","<div style=""font-size:60px;"">+</div>","null","html-keyboard-response","65","161597","0.0-9.0-0.28","xkxfkx","Wed Feb 10 2021 10:00:51 GMT+0100 (Centraleuropæisk normaltid)","2021","2","10","10","0","51","kv23","23","male","right","50","33","57","2","1","","","","","fixation","","","",""
"781.8850000039674","img/image_stim_f_stroop.png","70","image-keyboard-response","66","162381","0.0-9.0-1.28","xkxfkx","Wed Feb 10 2021 10:00:51 GMT+0100 (Centraleuropæisk normaltid)","2021","2","10","10","0","51","kv23","23","male","right","50","33","57","2","1","","","","","test","fear","happy","f","true"
"null","<div style=""font-size:60px;"">+</div>","null","html-keyboard-response","67","162887","0.0-9.0-0.29","xkxfkx","Wed Feb 10 2021 10:00:51 GMT+0100 (Centraleuropæisk normaltid)","2021","2","10","10","0","51","kv23","23","male","right","50","33","57","2","1","","","","","fixation","","","",""
"526.9050000351854","img/image_stim_h.png","72","image-keyboard-response","68","163415","0.0-9.0-1.29","xkxfkx","Wed Feb 10 2021 10:00:51 GMT+0100 (Centraleuropæisk normaltid)","2021","2","10","10","0","51","kv23","23","male","right","50","33","57","2","1","","","","","test","happy","happy","h","true"
"null","<div style=""font-size:60px;"">+</div>","null","html-keyboard-response","69","164173","0.0-9.0-0.30","xkxfkx","Wed Feb 10 2021 10:00:51 GMT+0100 (Centraleuropæisk normaltid)","2021","2","10","10","0","51","kv23","23","male","right","50","33","57","2","1","","","","","fixation","","","",""
"557.6899999869056","img/image_stim_h_stroop.png","72","image-keyboard-response","70","164732","0.0-9.0-1.30","xkxfkx","Wed Feb 10 2021 10:00:51 GMT+0100 (Centraleuropæisk normaltid)","2021","2","10","10","0","51","kv23","23","male","right","50","33","57","2","1","","","","","test","happy","fear","h","true"
"null","<div style=""font-size:60px;"">+</div>","null","html-keyboard-response","71","165489","0.0-9.0-0.31","xkxfkx","Wed Feb 10 2021 10:00:51 GMT+0100 (Centraleuropæisk normaltid)","2021","2","10","10","0","51","kv23","23","male","right","50","33","57","2","1","","","","","fixation","","","",""
"501.17499998304993","img/image_stim_f.png","70","image-keyboard-response","72","165991","0.0-9.0-1.31","xkxfkx","Wed Feb 10 2021 10:00:51 GMT+0100 (Centraleuropæisk normaltid)","2021","2","10","10","0","51","kv23","23","male","right","50","33","57","2","1","","","","","test","fear","fear","f","true"
"null","<div style=""font-size:60px;"">+</div>","null","html-keyboard-response","73","166997","0.0-9.0-0.32","xkxfkx","Wed Feb 10 2021 10:00:51 GMT+0100 (Centraleuropæisk normaltid)","2021","2","10","10","0","51","kv23","23","male","right","50","33","57","2","1","","","","","fixation","","","",""
"730.2800000179559","img/image_stim_f.png","70","image-keyboard-response","74","167728","0.0-9.0-1.32","xkxfkx","Wed Feb 10 2021 10:00:51 GMT+0100 (Centraleuropæisk normaltid)","2021","2","10","10","0","51","kv23","23","male","right","50","33","57","2","1","","","","","test","fear","fear","f","true"
"null","<div style=""font-size:60px;"">+</div>","null","html-keyboard-response","75","168735","0.0-9.0-0.33","xkxfkx","Wed Feb 10 2021 10:00:51 GMT+0100 (Centraleuropæisk normaltid)","2021","2","10","10","0","51","kv23","23","male","right","50","33","57","2","1","","","","","fixation","","","",""
"510.1450000074692","img/image_stim_h.png","72","image-keyboard-response","76","169246","0.0-9.0-1.33","xkxfkx","Wed Feb 10 2021 10:00:51 GMT+0100 (Centraleuropæisk normaltid)","2021","2","10","10","0","51","kv23","23","male","right","50","33","57","2","1","","","","","test","happy","happy","h","true"
"null","<div style=""font-size:60px;"">+</div>","null","html-keyboard-response","77","171251","0.0-9.0-0.34","xkxfkx","Wed Feb 10 2021 10:00:51 GMT+0100 (Centraleuropæisk normaltid)","2021","2","10","10","0","51","kv23","23","male","right","50","33","57","2","1","","","","","fixation","","","",""
"635.1949999807402","img/image_stim_f_stroop.png","70","image-keyboard-response","78","171888","0.0-9.0-1.34","xkxfkx","Wed Feb 10 2021 10:00:51 GMT+0100 (Centraleuropæisk normaltid)","2021","2","10","10","0","51","kv23","23","male","right","50","33","57","2","1","","","","","test","fear","happy","f","true"
"null","<div style=""font-size:60px;"">+</div>","null","html-keyboard-response","79","173644","0.0-9.0-0.35","xkxfkx","Wed Feb 10 2021 10:00:51 GMT+0100 (Centraleuropæisk normaltid)","2021","2","10","10","0","51","kv23","23","male","right","50","33","57","2","1","","","","","fixation","","","",""
"484.3049999908544","img/image_stim_h_stroop.png","72","image-keyboard-response","80","174130","0.0-9.0-1.35","xkxfkx","Wed Feb 10 2021 10:00:51 GMT+0100 (Centraleuropæisk normaltid)","2021","2","10","10","0","51","kv23","23","male","right","50","33","57","2","1","","","","","test","happy","fear","h","true"
