"rt","stimulus","key_press","trial_type","trial_index","time_elapsed","internal_node_id","exp_id","Time","year","month","date","hour","minute","seconds","id","age","Gender","Handedness","mood","fresh","hunger","H_since_Sleep","H_since_Eat","responses","question_order","slider_start","response","test_part","face","word","correct_response","correct"
"45965","<p>Welcome to this experiment on daily rhythms and cognition.</p><p>First you will be asked some questions about yourself.</p><p>Then a short experiment will measure your response time.</p><p>Take the test at different times of the day/night.</p><p>The test is anonymous, but comparing your data across time is important.</p><p>Therefore, please make up and remember a personal ID (two letters+ two numbers).</p><p>Use this ID whenever taking the test.</p><p><strong>Press any key to begin.</strong></p>","77","html-keyboard-response","0","45973","0.0-0.0","lj6asl","Tue Feb 16 2021 20:34:00 GMT+0200 (Eastern European Standard Time)","2021","2","16","20","34","0","lb78","27","male","left","90","46","0","0","6","","","","","","","","",""
"6680","","","survey-text","1","52676","0.0-1.0","lj6asl","Tue Feb 16 2021 20:34:00 GMT+0200 (Eastern European Standard Time)","2021","2","16","20","34","0","lb78","27","male","left","90","46","0","0","6","{""Q0"":""lb78""}","","","","","","","",""
"3160","","","survey-text","2","55849","0.0-2.0","lj6asl","Tue Feb 16 2021 20:34:00 GMT+0200 (Eastern European Standard Time)","2021","2","16","20","34","0","lb78","27","male","left","90","46","0","0","6","{""Q0"":""27""}","","","","","","","",""
"5370","","","survey-multi-select","3","61236","0.0-3.0","lj6asl","Tue Feb 16 2021 20:34:00 GMT+0200 (Eastern European Standard Time)","2021","2","16","20","34","0","lb78","27","male","left","90","46","0","0","6","{""Gender"":[""male""],""Hand"":[""left""]}","[0,1]","","","","","","",""
"7595","<p>How Sad/Angry or Happy are you right now?</p>","","html-slider-response","4","68848","0.0-4.0","lj6asl","Tue Feb 16 2021 20:34:00 GMT+0200 (Eastern European Standard Time)","2021","2","16","20","34","0","lb78","27","male","left","90","46","0","0","6","","","50","90","","","","",""
"8518","<p>How Tired/Sleepy/Distracted or Fresh/Awake/Alert are you right now?</p>","","html-slider-response","5","77379","0.0-5.0","lj6asl","Tue Feb 16 2021 20:34:00 GMT+0200 (Eastern European Standard Time)","2021","2","16","20","34","0","lb78","27","male","left","90","46","0","0","6","","","50","46","","","","",""
"6542","<p>How Hungry or Satiated are you right now?</p>","","html-slider-response","6","83931","0.0-6.0","lj6asl","Tue Feb 16 2021 20:34:00 GMT+0200 (Eastern European Standard Time)","2021","2","16","20","34","0","lb78","27","male","left","90","46","0","0","6","","","50","0","","","","",""
"42414","","","survey-multi-select","7","126422","0.0-7.0","lj6asl","Tue Feb 16 2021 20:34:00 GMT+0200 (Eastern European Standard Time)","2021","2","16","20","34","0","lb78","27","male","left","90","46","0","0","6","{""Sleep"":[""0""],""Eat"":[""6""]}","[0,1]","","","","","","",""
"4345","<p>In this experiment, a face and a word will appear in the center of the screen.</p><p>If the face is <strong>happy</strong>, press the letter <strong>H</strong> with <strong>right</strong> index finger.</p><p>If the face is <strong>fearful</strong>, press the letter <strong>F</strong> with <strong>left</strong> index finger.</p><p><strong>Ignore the written words</strong>. Respond as fast as possible while being correct. </p><div style='width: 900px;'><div style='float: left;'><img src='img/stimuli_stroop_happy.png'></img><p class='small'><strong>Press the H key for happy faces</strong></p></div><div class='float: right;'><img src='img/stimuli_stroop_fear.png'></img><p class='small'><strong>Press the F key for faces with fear</strong></p></div></div><p>If the screen turns blank, press <strong>SPACE</strong></p><p><strong>Press any key to begin.</strong></p>","32","html-keyboard-response","8","130776","0.0-8.0","lj6asl","Tue Feb 16 2021 20:34:00 GMT+0200 (Eastern European Standard Time)","2021","2","16","20","34","0","lb78","27","male","left","90","46","0","0","6","","","","","","","","",""
"null","<div style=""font-size:60px;"">+</div>","null","html-keyboard-response","9","134806","0.0-9.0-0.0","lj6asl","Tue Feb 16 2021 20:34:00 GMT+0200 (Eastern European Standard Time)","2021","2","16","20","34","0","lb78","27","male","left","90","46","0","0","6","","","","","fixation","","","",""
"1152","img/image_stim_f.png","70","image-keyboard-response","10","135986","0.0-9.0-1.0","lj6asl","Tue Feb 16 2021 20:34:00 GMT+0200 (Eastern European Standard Time)","2021","2","16","20","34","0","lb78","27","male","left","90","46","0","0","6","","","","","test","fear","fear","f","true"
"null","<div style=""font-size:60px;"">+</div>","null","html-keyboard-response","11","137755","0.0-9.0-0.1","lj6asl","Tue Feb 16 2021 20:34:00 GMT+0200 (Eastern European Standard Time)","2021","2","16","20","34","0","lb78","27","male","left","90","46","0","0","6","","","","","fixation","","","",""
"879","img/image_stim_f_stroop.png","70","image-keyboard-response","12","138646","0.0-9.0-1.1","lj6asl","Tue Feb 16 2021 20:34:00 GMT+0200 (Eastern European Standard Time)","2021","2","16","20","34","0","lb78","27","male","left","90","46","0","0","6","","","","","test","fear","happy","f","true"
"null","<div style=""font-size:60px;"">+</div>","null","html-keyboard-response","13","139154","0.0-9.0-0.2","lj6asl","Tue Feb 16 2021 20:34:00 GMT+0200 (Eastern European Standard Time)","2021","2","16","20","34","0","lb78","27","male","left","90","46","0","0","6","","","","","fixation","","","",""
"797","img/image_stim_h_stroop.png","72","image-keyboard-response","14","139962","0.0-9.0-1.2","lj6asl","Tue Feb 16 2021 20:34:00 GMT+0200 (Eastern European Standard Time)","2021","2","16","20","34","0","lb78","27","male","left","90","46","0","0","6","","","","","test","happy","fear","h","true"
"null","<div style=""font-size:60px;"">+</div>","null","html-keyboard-response","15","141970","0.0-9.0-0.3","lj6asl","Tue Feb 16 2021 20:34:00 GMT+0200 (Eastern European Standard Time)","2021","2","16","20","34","0","lb78","27","male","left","90","46","0","0","6","","","","","fixation","","","",""
"605","img/image_stim_h.png","72","image-keyboard-response","16","142585","0.0-9.0-1.3","lj6asl","Tue Feb 16 2021 20:34:00 GMT+0200 (Eastern European Standard Time)","2021","2","16","20","34","0","lb78","27","male","left","90","46","0","0","6","","","","","test","happy","happy","h","true"
"null","<div style=""font-size:60px;"">+</div>","null","html-keyboard-response","17","143103","0.0-9.0-0.4","lj6asl","Tue Feb 16 2021 20:34:00 GMT+0200 (Eastern European Standard Time)","2021","2","16","20","34","0","lb78","27","male","left","90","46","0","0","6","","","","","fixation","","","",""
"791","img/image_stim_h_stroop.png","72","image-keyboard-response","18","143897","0.0-9.0-1.4","lj6asl","Tue Feb 16 2021 20:34:00 GMT+0200 (Eastern European Standard Time)","2021","2","16","20","34","0","lb78","27","male","left","90","46","0","0","6","","","","","test","happy","fear","h","true"
"null","<div style=""font-size:60px;"">+</div>","null","html-keyboard-response","19","145651","0.0-9.0-0.5","lj6asl","Tue Feb 16 2021 20:34:00 GMT+0200 (Eastern European Standard Time)","2021","2","16","20","34","0","lb78","27","male","left","90","46","0","0","6","","","","","fixation","","","",""
"610","img/image_stim_h.png","72","image-keyboard-response","20","146264","0.0-9.0-1.5","lj6asl","Tue Feb 16 2021 20:34:00 GMT+0200 (Eastern European Standard Time)","2021","2","16","20","34","0","lb78","27","male","left","90","46","0","0","6","","","","","test","happy","happy","h","true"
"null","<div style=""font-size:60px;"">+</div>","null","html-keyboard-response","21","147783","0.0-9.0-0.6","lj6asl","Tue Feb 16 2021 20:34:00 GMT+0200 (Eastern European Standard Time)","2021","2","16","20","34","0","lb78","27","male","left","90","46","0","0","6","","","","","fixation","","","",""
"903","img/image_stim_f_stroop.png","70","image-keyboard-response","22","148690","0.0-9.0-1.6","lj6asl","Tue Feb 16 2021 20:34:00 GMT+0200 (Eastern European Standard Time)","2021","2","16","20","34","0","lb78","27","male","left","90","46","0","0","6","","","","","test","fear","happy","f","true"
"null","<div style=""font-size:60px;"">+</div>","null","html-keyboard-response","23","149200","0.0-9.0-0.7","lj6asl","Tue Feb 16 2021 20:34:00 GMT+0200 (Eastern European Standard Time)","2021","2","16","20","34","0","lb78","27","male","left","90","46","0","0","6","","","","","fixation","","","",""
"584","img/image_stim_f.png","70","image-keyboard-response","24","149788","0.0-9.0-1.7","lj6asl","Tue Feb 16 2021 20:34:00 GMT+0200 (Eastern European Standard Time)","2021","2","16","20","34","0","lb78","27","male","left","90","46","0","0","6","","","","","test","fear","fear","f","true"
"null","<div style=""font-size:60px;"">+</div>","null","html-keyboard-response","25","150049","0.0-9.0-0.8","lj6asl","Tue Feb 16 2021 20:34:00 GMT+0200 (Eastern European Standard Time)","2021","2","16","20","34","0","lb78","27","male","left","90","46","0","0","6","","","","","fixation","","","",""
"500","img/image_stim_f.png","70","image-keyboard-response","26","150554","0.0-9.0-1.8","lj6asl","Tue Feb 16 2021 20:34:00 GMT+0200 (Eastern European Standard Time)","2021","2","16","20","34","0","lb78","27","male","left","90","46","0","0","6","","","","","test","fear","fear","f","true"
"null","<div style=""font-size:60px;"">+</div>","null","html-keyboard-response","27","152065","0.0-9.0-0.9","lj6asl","Tue Feb 16 2021 20:34:00 GMT+0200 (Eastern European Standard Time)","2021","2","16","20","34","0","lb78","27","male","left","90","46","0","0","6","","","","","fixation","","","",""
"563","img/image_stim_h.png","72","image-keyboard-response","28","152632","0.0-9.0-1.9","lj6asl","Tue Feb 16 2021 20:34:00 GMT+0200 (Eastern European Standard Time)","2021","2","16","20","34","0","lb78","27","male","left","90","46","0","0","6","","","","","test","happy","happy","h","true"
"null","<div style=""font-size:60px;"">+</div>","null","html-keyboard-response","29","153396","0.0-9.0-0.10","lj6asl","Tue Feb 16 2021 20:34:00 GMT+0200 (Eastern European Standard Time)","2021","2","16","20","34","0","lb78","27","male","left","90","46","0","0","6","","","","","fixation","","","",""
"615","img/image_stim_f_stroop.png","70","image-keyboard-response","30","154016","0.0-9.0-1.10","lj6asl","Tue Feb 16 2021 20:34:00 GMT+0200 (Eastern European Standard Time)","2021","2","16","20","34","0","lb78","27","male","left","90","46","0","0","6","","","","","test","fear","happy","f","true"
"null","<div style=""font-size:60px;"">+</div>","null","html-keyboard-response","31","154530","0.0-9.0-0.11","lj6asl","Tue Feb 16 2021 20:34:00 GMT+0200 (Eastern European Standard Time)","2021","2","16","20","34","0","lb78","27","male","left","90","46","0","0","6","","","","","fixation","","","",""
"664","img/image_stim_h_stroop.png","72","image-keyboard-response","32","155199","0.0-9.0-1.11","lj6asl","Tue Feb 16 2021 20:34:00 GMT+0200 (Eastern European Standard Time)","2021","2","16","20","34","0","lb78","27","male","left","90","46","0","0","6","","","","","test","happy","fear","h","true"
"null","<div style=""font-size:60px;"">+</div>","null","html-keyboard-response","33","156212","0.0-9.0-0.12","lj6asl","Tue Feb 16 2021 20:34:00 GMT+0200 (Eastern European Standard Time)","2021","2","16","20","34","0","lb78","27","male","left","90","46","0","0","6","","","","","fixation","","","",""
"554","img/image_stim_h.png","72","image-keyboard-response","34","156771","0.0-9.0-1.12","lj6asl","Tue Feb 16 2021 20:34:00 GMT+0200 (Eastern European Standard Time)","2021","2","16","20","34","0","lb78","27","male","left","90","46","0","0","6","","","","","test","happy","happy","h","true"
"null","<div style=""font-size:60px;"">+</div>","null","html-keyboard-response","35","158029","0.0-9.0-0.13","lj6asl","Tue Feb 16 2021 20:34:00 GMT+0200 (Eastern European Standard Time)","2021","2","16","20","34","0","lb78","27","male","left","90","46","0","0","6","","","","","fixation","","","",""
"563","img/image_stim_h_stroop.png","72","image-keyboard-response","36","158596","0.0-9.0-1.13","lj6asl","Tue Feb 16 2021 20:34:00 GMT+0200 (Eastern European Standard Time)","2021","2","16","20","34","0","lb78","27","male","left","90","46","0","0","6","","","","","test","happy","fear","h","true"
"null","<div style=""font-size:60px;"">+</div>","null","html-keyboard-response","37","158861","0.0-9.0-0.14","lj6asl","Tue Feb 16 2021 20:34:00 GMT+0200 (Eastern European Standard Time)","2021","2","16","20","34","0","lb78","27","male","left","90","46","0","0","6","","","","","fixation","","","",""
"620","img/image_stim_f.png","70","image-keyboard-response","38","159485","0.0-9.0-1.14","lj6asl","Tue Feb 16 2021 20:34:00 GMT+0200 (Eastern European Standard Time)","2021","2","16","20","34","0","lb78","27","male","left","90","46","0","0","6","","","","","test","fear","fear","f","true"
"null","<div style=""font-size:60px;"">+</div>","null","html-keyboard-response","39","160743","0.0-9.0-0.15","lj6asl","Tue Feb 16 2021 20:34:00 GMT+0200 (Eastern European Standard Time)","2021","2","16","20","34","0","lb78","27","male","left","90","46","0","0","6","","","","","fixation","","","",""
"499","img/image_stim_f_stroop.png","70","image-keyboard-response","40","161247","0.0-9.0-1.15","lj6asl","Tue Feb 16 2021 20:34:00 GMT+0200 (Eastern European Standard Time)","2021","2","16","20","34","0","lb78","27","male","left","90","46","0","0","6","","","","","test","fear","happy","f","true"
"null","<div style=""font-size:60px;"">+</div>","null","html-keyboard-response","41","163009","0.0-9.0-0.16","lj6asl","Tue Feb 16 2021 20:34:00 GMT+0200 (Eastern European Standard Time)","2021","2","16","20","34","0","lb78","27","male","left","90","46","0","0","6","","","","","fixation","","","",""
"530","img/image_stim_f.png","70","image-keyboard-response","42","163546","0.0-9.0-1.16","lj6asl","Tue Feb 16 2021 20:34:00 GMT+0200 (Eastern European Standard Time)","2021","2","16","20","34","0","lb78","27","male","left","90","46","0","0","6","","","","","test","fear","fear","f","true"
"null","<div style=""font-size:60px;"">+</div>","null","html-keyboard-response","43","164559","0.0-9.0-0.17","lj6asl","Tue Feb 16 2021 20:34:00 GMT+0200 (Eastern European Standard Time)","2021","2","16","20","34","0","lb78","27","male","left","90","46","0","0","6","","","","","fixation","","","",""
"480","img/image_stim_f_stroop.png","70","image-keyboard-response","44","165043","0.0-9.0-1.17","lj6asl","Tue Feb 16 2021 20:34:00 GMT+0200 (Eastern European Standard Time)","2021","2","16","20","34","0","lb78","27","male","left","90","46","0","0","6","","","","","test","fear","happy","f","true"
"null","<div style=""font-size:60px;"">+</div>","null","html-keyboard-response","45","165558","0.0-9.0-0.18","lj6asl","Tue Feb 16 2021 20:34:00 GMT+0200 (Eastern European Standard Time)","2021","2","16","20","34","0","lb78","27","male","left","90","46","0","0","6","","","","","fixation","","","",""
"514","img/image_stim_h.png","72","image-keyboard-response","46","166076","0.0-9.0-1.18","lj6asl","Tue Feb 16 2021 20:34:00 GMT+0200 (Eastern European Standard Time)","2021","2","16","20","34","0","lb78","27","male","left","90","46","0","0","6","","","","","test","happy","happy","h","true"
"null","<div style=""font-size:60px;"">+</div>","null","html-keyboard-response","47","166342","0.0-9.0-0.19","lj6asl","Tue Feb 16 2021 20:34:00 GMT+0200 (Eastern European Standard Time)","2021","2","16","20","34","0","lb78","27","male","left","90","46","0","0","6","","","","","fixation","","","",""
"591","img/image_stim_h_stroop.png","72","image-keyboard-response","48","166936","0.0-9.0-1.19","lj6asl","Tue Feb 16 2021 20:34:00 GMT+0200 (Eastern European Standard Time)","2021","2","16","20","34","0","lb78","27","male","left","90","46","0","0","6","","","","","test","happy","fear","h","true"
"null","<div style=""font-size:60px;"">+</div>","null","html-keyboard-response","49","168956","0.0-9.0-0.20","lj6asl","Tue Feb 16 2021 20:34:00 GMT+0200 (Eastern European Standard Time)","2021","2","16","20","34","0","lb78","27","male","left","90","46","0","0","6","","","","","fixation","","","",""
"465","img/image_stim_f.png","70","image-keyboard-response","50","169424","0.0-9.0-1.20","lj6asl","Tue Feb 16 2021 20:34:00 GMT+0200 (Eastern European Standard Time)","2021","2","16","20","34","0","lb78","27","male","left","90","46","0","0","6","","","","","test","fear","fear","f","true"
"null","<div style=""font-size:60px;"">+</div>","null","html-keyboard-response","51","169690","0.0-9.0-0.21","lj6asl","Tue Feb 16 2021 20:34:00 GMT+0200 (Eastern European Standard Time)","2021","2","16","20","34","0","lb78","27","male","left","90","46","0","0","6","","","","","fixation","","","",""
"475","img/image_stim_f_stroop.png","70","image-keyboard-response","52","170167","0.0-9.0-1.21","lj6asl","Tue Feb 16 2021 20:34:00 GMT+0200 (Eastern European Standard Time)","2021","2","16","20","34","0","lb78","27","male","left","90","46","0","0","6","","","","","test","fear","happy","f","true"
"null","<div style=""font-size:60px;"">+</div>","null","html-keyboard-response","53","171439","0.0-9.0-0.22","lj6asl","Tue Feb 16 2021 20:34:00 GMT+0200 (Eastern European Standard Time)","2021","2","16","20","34","0","lb78","27","male","left","90","46","0","0","6","","","","","fixation","","","",""
"484","img/image_stim_h.png","72","image-keyboard-response","54","171926","0.0-9.0-1.22","lj6asl","Tue Feb 16 2021 20:34:00 GMT+0200 (Eastern European Standard Time)","2021","2","16","20","34","0","lb78","27","male","left","90","46","0","0","6","","","","","test","happy","happy","h","true"
"null","<div style=""font-size:60px;"">+</div>","null","html-keyboard-response","55","173438","0.0-9.0-0.23","lj6asl","Tue Feb 16 2021 20:34:00 GMT+0200 (Eastern European Standard Time)","2021","2","16","20","34","0","lb78","27","male","left","90","46","0","0","6","","","","","fixation","","","",""
"760","img/image_stim_h_stroop.png","72","image-keyboard-response","56","174201","0.0-9.0-1.23","lj6asl","Tue Feb 16 2021 20:34:00 GMT+0200 (Eastern European Standard Time)","2021","2","16","20","34","0","lb78","27","male","left","90","46","0","0","6","","","","","test","happy","fear","h","true"
"null","<div style=""font-size:60px;"">+</div>","null","html-keyboard-response","57","174721","0.0-9.0-0.24","lj6asl","Tue Feb 16 2021 20:34:00 GMT+0200 (Eastern European Standard Time)","2021","2","16","20","34","0","lb78","27","male","left","90","46","0","0","6","","","","","fixation","","","",""
"639","img/image_stim_f_stroop.png","70","image-keyboard-response","58","175364","0.0-9.0-1.24","lj6asl","Tue Feb 16 2021 20:34:00 GMT+0200 (Eastern European Standard Time)","2021","2","16","20","34","0","lb78","27","male","left","90","46","0","0","6","","","","","test","fear","happy","f","true"
"null","<div style=""font-size:60px;"">+</div>","null","html-keyboard-response","59","177135","0.0-9.0-0.25","lj6asl","Tue Feb 16 2021 20:34:00 GMT+0200 (Eastern European Standard Time)","2021","2","16","20","34","0","lb78","27","male","left","90","46","0","0","6","","","","","fixation","","","",""
"699","img/image_stim_h_stroop.png","72","image-keyboard-response","60","177838","0.0-9.0-1.25","lj6asl","Tue Feb 16 2021 20:34:00 GMT+0200 (Eastern European Standard Time)","2021","2","16","20","34","0","lb78","27","male","left","90","46","0","0","6","","","","","test","happy","fear","h","true"
"null","<div style=""font-size:60px;"">+</div>","null","html-keyboard-response","61","178353","0.0-9.0-0.26","lj6asl","Tue Feb 16 2021 20:34:00 GMT+0200 (Eastern European Standard Time)","2021","2","16","20","34","0","lb78","27","male","left","90","46","0","0","6","","","","","fixation","","","",""
"819","img/image_stim_f.png","70","image-keyboard-response","62","179176","0.0-9.0-1.26","lj6asl","Tue Feb 16 2021 20:34:00 GMT+0200 (Eastern European Standard Time)","2021","2","16","20","34","0","lb78","27","male","left","90","46","0","0","6","","","","","test","fear","fear","f","true"
"null","<div style=""font-size:60px;"">+</div>","null","html-keyboard-response","63","181185","0.0-9.0-0.27","lj6asl","Tue Feb 16 2021 20:34:00 GMT+0200 (Eastern European Standard Time)","2021","2","16","20","34","0","lb78","27","male","left","90","46","0","0","6","","","","","fixation","","","",""
"578","img/image_stim_h.png","72","image-keyboard-response","64","181766","0.0-9.0-1.27","lj6asl","Tue Feb 16 2021 20:34:00 GMT+0200 (Eastern European Standard Time)","2021","2","16","20","34","0","lb78","27","male","left","90","46","0","0","6","","","","","test","happy","happy","h","true"
"null","<div style=""font-size:60px;"">+</div>","null","html-keyboard-response","65","183533","0.0-9.0-0.28","lj6asl","Tue Feb 16 2021 20:34:00 GMT+0200 (Eastern European Standard Time)","2021","2","16","20","34","0","lb78","27","male","left","90","46","0","0","6","","","","","fixation","","","",""
"650","img/image_stim_f_stroop.png","70","image-keyboard-response","66","184186","0.0-9.0-1.28","lj6asl","Tue Feb 16 2021 20:34:00 GMT+0200 (Eastern European Standard Time)","2021","2","16","20","34","0","lb78","27","male","left","90","46","0","0","6","","","","","test","fear","happy","f","true"
"null","<div style=""font-size:60px;"">+</div>","null","html-keyboard-response","67","185450","0.0-9.0-0.29","lj6asl","Tue Feb 16 2021 20:34:00 GMT+0200 (Eastern European Standard Time)","2021","2","16","20","34","0","lb78","27","male","left","90","46","0","0","6","","","","","fixation","","","",""
"598","img/image_stim_h.png","72","image-keyboard-response","68","186051","0.0-9.0-1.29","lj6asl","Tue Feb 16 2021 20:34:00 GMT+0200 (Eastern European Standard Time)","2021","2","16","20","34","0","lb78","27","male","left","90","46","0","0","6","","","","","test","happy","happy","h","true"
"null","<div style=""font-size:60px;"">+</div>","null","html-keyboard-response","69","186313","0.0-9.0-0.30","lj6asl","Tue Feb 16 2021 20:34:00 GMT+0200 (Eastern European Standard Time)","2021","2","16","20","34","0","lb78","27","male","left","90","46","0","0","6","","","","","fixation","","","",""
"613","img/image_stim_h_stroop.png","72","image-keyboard-response","70","186930","0.0-9.0-1.30","lj6asl","Tue Feb 16 2021 20:34:00 GMT+0200 (Eastern European Standard Time)","2021","2","16","20","34","0","lb78","27","male","left","90","46","0","0","6","","","","","test","happy","fear","h","true"
"null","<div style=""font-size:60px;"">+</div>","null","html-keyboard-response","71","187698","0.0-9.0-0.31","lj6asl","Tue Feb 16 2021 20:34:00 GMT+0200 (Eastern European Standard Time)","2021","2","16","20","34","0","lb78","27","male","left","90","46","0","0","6","","","","","fixation","","","",""
"570","img/image_stim_f.png","70","image-keyboard-response","72","188272","0.0-9.0-1.31","lj6asl","Tue Feb 16 2021 20:34:00 GMT+0200 (Eastern European Standard Time)","2021","2","16","20","34","0","lb78","27","male","left","90","46","0","0","6","","","","","test","fear","fear","f","true"
"null","<div style=""font-size:60px;"">+</div>","null","html-keyboard-response","73","189546","0.0-9.0-0.32","lj6asl","Tue Feb 16 2021 20:34:00 GMT+0200 (Eastern European Standard Time)","2021","2","16","20","34","0","lb78","27","male","left","90","46","0","0","6","","","","","fixation","","","",""
"559","img/image_stim_h.png","72","image-keyboard-response","74","190109","0.0-9.0-1.32","lj6asl","Tue Feb 16 2021 20:34:00 GMT+0200 (Eastern European Standard Time)","2021","2","16","20","34","0","lb78","27","male","left","90","46","0","0","6","","","","","test","happy","happy","h","true"
"null","<div style=""font-size:60px;"">+</div>","null","html-keyboard-response","75","191380","0.0-9.0-0.33","lj6asl","Tue Feb 16 2021 20:34:00 GMT+0200 (Eastern European Standard Time)","2021","2","16","20","34","0","lb78","27","male","left","90","46","0","0","6","","","","","fixation","","","",""
"676","img/image_stim_h_stroop.png","72","image-keyboard-response","76","192060","0.0-9.0-1.33","lj6asl","Tue Feb 16 2021 20:34:00 GMT+0200 (Eastern European Standard Time)","2021","2","16","20","34","0","lb78","27","male","left","90","46","0","0","6","","","","","test","happy","fear","h","true"
"null","<div style=""font-size:60px;"">+</div>","null","html-keyboard-response","77","194079","0.0-9.0-0.34","lj6asl","Tue Feb 16 2021 20:34:00 GMT+0200 (Eastern European Standard Time)","2021","2","16","20","34","0","lb78","27","male","left","90","46","0","0","6","","","","","fixation","","","",""
"624","img/image_stim_f.png","70","image-keyboard-response","78","194706","0.0-9.0-1.34","lj6asl","Tue Feb 16 2021 20:34:00 GMT+0200 (Eastern European Standard Time)","2021","2","16","20","34","0","lb78","27","male","left","90","46","0","0","6","","","","","test","fear","fear","f","true"
"null","<div style=""font-size:60px;"">+</div>","null","html-keyboard-response","79","196726","0.0-9.0-0.35","lj6asl","Tue Feb 16 2021 20:34:00 GMT+0200 (Eastern European Standard Time)","2021","2","16","20","34","0","lb78","27","male","left","90","46","0","0","6","","","","","fixation","","","",""
"960","img/image_stim_f_stroop.png","70","image-keyboard-response","80","197690","0.0-9.0-1.35","lj6asl","Tue Feb 16 2021 20:34:00 GMT+0200 (Eastern European Standard Time)","2021","2","16","20","34","0","lb78","27","male","left","90","46","0","0","6","","","","","test","fear","happy","f","true"
