"rt","stimulus","key_press","trial_type","trial_index","time_elapsed","internal_node_id","exp_id","Time","year","month","date","hour","minute","seconds","id","age","Gender","Handedness","mood","fresh","hunger","H_since_Sleep","H_since_Eat","responses","question_order","slider_start","response","test_part","face","word","correct_response","correct"
"12148.365000000922","<p>Welcome to this experiment on daily rhythms and cognition.</p><p>First you will be asked some questions about yourself.</p><p>Then a short experiment will measure your response time.</p><p>Take the test at different times of the day/night.</p><p>The test is anonymous, but comparing your data across time is important.</p><p>Therefore, please make up and remember a personal ID (two letters+ two numbers).</p><p>Use this ID whenever taking the test.</p><p><strong>Press any key to begin.</strong></p>","32","html-keyboard-response","0","12150","0.0-0.0","glzogz","Tue Feb 16 2021 23:37:56 GMT+0100 (Central European Standard Time)","2021","2","16","23","37","56","ii98","22","female","right","69","22","24","15","6","","","","","","","","",""
"7552.795000010519","","","survey-text","1","19710","0.0-1.0","glzogz","Tue Feb 16 2021 23:37:56 GMT+0100 (Central European Standard Time)","2021","2","16","23","37","56","ii98","22","female","right","69","22","24","15","6","{""Q0"":""ii98""}","","","","","","","",""
"4204.175000006217","","","survey-text","2","23919","0.0-2.0","glzogz","Tue Feb 16 2021 23:37:56 GMT+0100 (Central European Standard Time)","2021","2","16","23","37","56","ii98","22","female","right","69","22","24","15","6","{""Q0"":""22""}","","","","","","","",""
"2838.3750000066357","","","survey-multi-select","3","26765","0.0-3.0","glzogz","Tue Feb 16 2021 23:37:56 GMT+0100 (Central European Standard Time)","2021","2","16","23","37","56","ii98","22","female","right","69","22","24","15","6","{""Gender"":[""female""],""Hand"":[""right""]}","[0,1]","","","","","","",""
"4550.394999998389","<p>How Sad/Angry or Happy are you right now?</p>","","html-slider-response","4","31320","0.0-4.0","glzogz","Tue Feb 16 2021 23:37:56 GMT+0100 (Central European Standard Time)","2021","2","16","23","37","56","ii98","22","female","right","69","22","24","15","6","","","50","69","","","","",""
"4500.27499999851","<p>How Tired/Sleepy/Distracted or Fresh/Awake/Alert are you right now?</p>","","html-slider-response","5","35822","0.0-5.0","glzogz","Tue Feb 16 2021 23:37:56 GMT+0100 (Central European Standard Time)","2021","2","16","23","37","56","ii98","22","female","right","69","22","24","15","6","","","50","22","","","","",""
"15614.304999995511","<p>How Hungry or Satiated are you right now?</p>","","html-slider-response","6","51438","0.0-6.0","glzogz","Tue Feb 16 2021 23:37:56 GMT+0100 (Central European Standard Time)","2021","2","16","23","37","56","ii98","22","female","right","69","22","24","15","6","","","50","24","","","","",""
"34654.43999999843","","","survey-multi-select","7","86114","0.0-7.0","glzogz","Tue Feb 16 2021 23:37:56 GMT+0100 (Central European Standard Time)","2021","2","16","23","37","56","ii98","22","female","right","69","22","24","15","6","{""Sleep"":[""15""],""Eat"":[""6""]}","[0,1]","","","","","","",""
"4406.985000008717","<p>In this experiment, a face and a word will appear in the center of the screen.</p><p>If the face is <strong>happy</strong>, press the letter <strong>H</strong> with <strong>right</strong> index finger.</p><p>If the face is <strong>fearful</strong>, press the letter <strong>F</strong> with <strong>left</strong> index finger.</p><p><strong>Ignore the written words</strong>. Respond as fast as possible while being correct. </p><div style='width: 900px;'><div style='float: left;'><img src='img/stimuli_stroop_happy.png'></img><p class='small'><strong>Press the H key for happy faces</strong></p></div><div class='float: right;'><img src='img/stimuli_stroop_fear.png'></img><p class='small'><strong>Press the F key for faces with fear</strong></p></div></div><p>If the screen turns blank, press <strong>SPACE</strong></p><p><strong>Press any key to begin.</strong></p>","32","html-keyboard-response","8","90523","0.0-8.0","glzogz","Tue Feb 16 2021 23:37:56 GMT+0100 (Central European Standard Time)","2021","2","16","23","37","56","ii98","22","female","right","69","22","24","15","6","","","","","","","","",""
"null","<div style=""font-size:60px;"">+</div>","null","html-keyboard-response","9","94283","0.0-9.0-0.0","glzogz","Tue Feb 16 2021 23:37:56 GMT+0100 (Central European Standard Time)","2021","2","16","23","37","56","ii98","22","female","right","69","22","24","15","6","","","","","fixation","","","",""
"538.300000000163","img/image_stim_f.png","70","image-keyboard-response","10","94864","0.0-9.0-1.0","glzogz","Tue Feb 16 2021 23:37:56 GMT+0100 (Central European Standard Time)","2021","2","16","23","37","56","ii98","22","female","right","69","22","24","15","6","","","","","test","fear","fear","f","true"
"null","<div style=""font-size:60px;"">+</div>","null","html-keyboard-response","11","95373","0.0-9.0-0.1","glzogz","Tue Feb 16 2021 23:37:56 GMT+0100 (Central European Standard Time)","2021","2","16","23","37","56","ii98","22","female","right","69","22","24","15","6","","","","","fixation","","","",""
"458.37500000197906","img/image_stim_h_stroop.png","72","image-keyboard-response","12","95834","0.0-9.0-1.1","glzogz","Tue Feb 16 2021 23:37:56 GMT+0100 (Central European Standard Time)","2021","2","16","23","37","56","ii98","22","female","right","69","22","24","15","6","","","","","test","happy","fear","h","true"
"null","<div style=""font-size:60px;"">+</div>","null","html-keyboard-response","13","96338","0.0-9.0-0.2","glzogz","Tue Feb 16 2021 23:37:56 GMT+0100 (Central European Standard Time)","2021","2","16","23","37","56","ii98","22","female","right","69","22","24","15","6","","","","","fixation","","","",""
"432.47500000870787","img/image_stim_h.png","72","image-keyboard-response","14","96773","0.0-9.0-1.2","glzogz","Tue Feb 16 2021 23:37:56 GMT+0100 (Central European Standard Time)","2021","2","16","23","37","56","ii98","22","female","right","69","22","24","15","6","","","","","test","happy","happy","h","true"
"null","<div style=""font-size:60px;"">+</div>","null","html-keyboard-response","15","98280","0.0-9.0-0.3","glzogz","Tue Feb 16 2021 23:37:56 GMT+0100 (Central European Standard Time)","2021","2","16","23","37","56","ii98","22","female","right","69","22","24","15","6","","","","","fixation","","","",""
"415.09499998937827","img/image_stim_f_stroop.png","72","image-keyboard-response","16","98698","0.0-9.0-1.3","glzogz","Tue Feb 16 2021 23:37:56 GMT+0100 (Central European Standard Time)","2021","2","16","23","37","56","ii98","22","female","right","69","22","24","15","6","","","","","test","fear","happy","f","false"
"null","<div style=""font-size:60px;"">+</div>","null","html-keyboard-response","17","99707","0.0-9.0-0.4","glzogz","Tue Feb 16 2021 23:37:56 GMT+0100 (Central European Standard Time)","2021","2","16","23","37","56","ii98","22","female","right","69","22","24","15","6","","","","","fixation","","","",""
"502.200000002631","img/image_stim_f_stroop.png","70","image-keyboard-response","18","100211","0.0-9.0-1.4","glzogz","Tue Feb 16 2021 23:37:56 GMT+0100 (Central European Standard Time)","2021","2","16","23","37","56","ii98","22","female","right","69","22","24","15","6","","","","","test","fear","happy","f","true"
"null","<div style=""font-size:60px;"">+</div>","null","html-keyboard-response","19","100718","0.0-9.0-0.5","glzogz","Tue Feb 16 2021 23:37:56 GMT+0100 (Central European Standard Time)","2021","2","16","23","37","56","ii98","22","female","right","69","22","24","15","6","","","","","fixation","","","",""
"653.9449999982025","img/image_stim_f.png","70","image-keyboard-response","20","101374","0.0-9.0-1.5","glzogz","Tue Feb 16 2021 23:37:56 GMT+0100 (Central European Standard Time)","2021","2","16","23","37","56","ii98","22","female","right","69","22","24","15","6","","","","","test","fear","fear","f","true"
"null","<div style=""font-size:60px;"">+</div>","null","html-keyboard-response","21","101630","0.0-9.0-0.6","glzogz","Tue Feb 16 2021 23:37:56 GMT+0100 (Central European Standard Time)","2021","2","16","23","37","56","ii98","22","female","right","69","22","24","15","6","","","","","fixation","","","",""
"441.6049999999814","img/image_stim_h.png","72","image-keyboard-response","22","102074","0.0-9.0-1.6","glzogz","Tue Feb 16 2021 23:37:56 GMT+0100 (Central European Standard Time)","2021","2","16","23","37","56","ii98","22","female","right","69","22","24","15","6","","","","","test","happy","happy","h","true"
"null","<div style=""font-size:60px;"">+</div>","null","html-keyboard-response","23","102586","0.0-9.0-0.7","glzogz","Tue Feb 16 2021 23:37:56 GMT+0100 (Central European Standard Time)","2021","2","16","23","37","56","ii98","22","female","right","69","22","24","15","6","","","","","fixation","","","",""
"509.82000000658445","img/image_stim_h_stroop.png","72","image-keyboard-response","24","103099","0.0-9.0-1.7","glzogz","Tue Feb 16 2021 23:37:56 GMT+0100 (Central European Standard Time)","2021","2","16","23","37","56","ii98","22","female","right","69","22","24","15","6","","","","","test","happy","fear","h","true"
"null","<div style=""font-size:60px;"">+</div>","null","html-keyboard-response","25","104608","0.0-9.0-0.8","glzogz","Tue Feb 16 2021 23:37:56 GMT+0100 (Central European Standard Time)","2021","2","16","23","37","56","ii98","22","female","right","69","22","24","15","6","","","","","fixation","","","",""
"696.5849999978673","img/image_stim_f.png","70","image-keyboard-response","26","105307","0.0-9.0-1.8","glzogz","Tue Feb 16 2021 23:37:56 GMT+0100 (Central European Standard Time)","2021","2","16","23","37","56","ii98","22","female","right","69","22","24","15","6","","","","","test","fear","fear","f","true"
"null","<div style=""font-size:60px;"">+</div>","null","html-keyboard-response","27","106563","0.0-9.0-0.9","glzogz","Tue Feb 16 2021 23:37:56 GMT+0100 (Central European Standard Time)","2021","2","16","23","37","56","ii98","22","female","right","69","22","24","15","6","","","","","fixation","","","",""
"432.6900000014575","img/image_stim_h.png","72","image-keyboard-response","28","106998","0.0-9.0-1.9","glzogz","Tue Feb 16 2021 23:37:56 GMT+0100 (Central European Standard Time)","2021","2","16","23","37","56","ii98","22","female","right","69","22","24","15","6","","","","","test","happy","happy","h","true"
"null","<div style=""font-size:60px;"">+</div>","null","html-keyboard-response","29","107754","0.0-9.0-0.10","glzogz","Tue Feb 16 2021 23:37:56 GMT+0100 (Central European Standard Time)","2021","2","16","23","37","56","ii98","22","female","right","69","22","24","15","6","","","","","fixation","","","",""
"438.2449999975506","img/image_stim_f_stroop.png","70","image-keyboard-response","30","108195","0.0-9.0-1.10","glzogz","Tue Feb 16 2021 23:37:56 GMT+0100 (Central European Standard Time)","2021","2","16","23","37","56","ii98","22","female","right","69","22","24","15","6","","","","","test","fear","happy","f","true"
"null","<div style=""font-size:60px;"">+</div>","null","html-keyboard-response","31","110202","0.0-9.0-0.11","glzogz","Tue Feb 16 2021 23:37:56 GMT+0100 (Central European Standard Time)","2021","2","16","23","37","56","ii98","22","female","right","69","22","24","15","6","","","","","fixation","","","",""
"411.37000000162516","img/image_stim_h_stroop.png","72","image-keyboard-response","32","110616","0.0-9.0-1.11","glzogz","Tue Feb 16 2021 23:37:56 GMT+0100 (Central European Standard Time)","2021","2","16","23","37","56","ii98","22","female","right","69","22","24","15","6","","","","","test","happy","fear","h","true"
"null","<div style=""font-size:60px;"">+</div>","null","html-keyboard-response","33","111375","0.0-9.0-0.12","glzogz","Tue Feb 16 2021 23:37:56 GMT+0100 (Central European Standard Time)","2021","2","16","23","37","56","ii98","22","female","right","69","22","24","15","6","","","","","fixation","","","",""
"429.9449999962235","img/image_stim_f_stroop.png","70","image-keyboard-response","34","111807","0.0-9.0-1.12","glzogz","Tue Feb 16 2021 23:37:56 GMT+0100 (Central European Standard Time)","2021","2","16","23","37","56","ii98","22","female","right","69","22","24","15","6","","","","","test","fear","happy","f","true"
"null","<div style=""font-size:60px;"">+</div>","null","html-keyboard-response","35","112563","0.0-9.0-0.13","glzogz","Tue Feb 16 2021 23:37:56 GMT+0100 (Central European Standard Time)","2021","2","16","23","37","56","ii98","22","female","right","69","22","24","15","6","","","","","fixation","","","",""
"498.5350000060862","img/image_stim_f.png","70","image-keyboard-response","36","113064","0.0-9.0-1.13","glzogz","Tue Feb 16 2021 23:37:56 GMT+0100 (Central European Standard Time)","2021","2","16","23","37","56","ii98","22","female","right","69","22","24","15","6","","","","","test","fear","fear","f","true"
"null","<div style=""font-size:60px;"">+</div>","null","html-keyboard-response","37","114568","0.0-9.0-0.14","glzogz","Tue Feb 16 2021 23:37:56 GMT+0100 (Central European Standard Time)","2021","2","16","23","37","56","ii98","22","female","right","69","22","24","15","6","","","","","fixation","","","",""
"449.5549999992363","img/image_stim_h_stroop.png","72","image-keyboard-response","38","115020","0.0-9.0-1.14","glzogz","Tue Feb 16 2021 23:37:56 GMT+0100 (Central European Standard Time)","2021","2","16","23","37","56","ii98","22","female","right","69","22","24","15","6","","","","","test","happy","fear","h","true"
"null","<div style=""font-size:60px;"">+</div>","null","html-keyboard-response","39","115775","0.0-9.0-0.15","glzogz","Tue Feb 16 2021 23:37:56 GMT+0100 (Central European Standard Time)","2021","2","16","23","37","56","ii98","22","female","right","69","22","24","15","6","","","","","fixation","","","",""
"434.464999998454","img/image_stim_h.png","72","image-keyboard-response","40","116212","0.0-9.0-1.15","glzogz","Tue Feb 16 2021 23:37:56 GMT+0100 (Central European Standard Time)","2021","2","16","23","37","56","ii98","22","female","right","69","22","24","15","6","","","","","test","happy","happy","h","true"
"null","<div style=""font-size:60px;"">+</div>","null","html-keyboard-response","41","117469","0.0-9.0-0.16","glzogz","Tue Feb 16 2021 23:37:56 GMT+0100 (Central European Standard Time)","2021","2","16","23","37","56","ii98","22","female","right","69","22","24","15","6","","","","","fixation","","","",""
"477.8200000000652","img/image_stim_h.png","72","image-keyboard-response","42","117949","0.0-9.0-1.16","glzogz","Tue Feb 16 2021 23:37:56 GMT+0100 (Central European Standard Time)","2021","2","16","23","37","56","ii98","22","female","right","69","22","24","15","6","","","","","test","happy","happy","h","true"
"null","<div style=""font-size:60px;"">+</div>","null","html-keyboard-response","43","119202","0.0-9.0-0.17","glzogz","Tue Feb 16 2021 23:37:56 GMT+0100 (Central European Standard Time)","2021","2","16","23","37","56","ii98","22","female","right","69","22","24","15","6","","","","","fixation","","","",""
"516.5799999958836","img/image_stim_h_stroop.png","72","image-keyboard-response","44","119721","0.0-9.0-1.17","glzogz","Tue Feb 16 2021 23:37:56 GMT+0100 (Central European Standard Time)","2021","2","16","23","37","56","ii98","22","female","right","69","22","24","15","6","","","","","test","happy","fear","h","true"
"null","<div style=""font-size:60px;"">+</div>","null","html-keyboard-response","45","119981","0.0-9.0-0.18","glzogz","Tue Feb 16 2021 23:37:56 GMT+0100 (Central European Standard Time)","2021","2","16","23","37","56","ii98","22","female","right","69","22","24","15","6","","","","","fixation","","","",""
"574.8199999943608","img/image_stim_f.png","70","image-keyboard-response","46","120558","0.0-9.0-1.18","glzogz","Tue Feb 16 2021 23:37:56 GMT+0100 (Central European Standard Time)","2021","2","16","23","37","56","ii98","22","female","right","69","22","24","15","6","","","","","test","fear","fear","f","true"
"null","<div style=""font-size:60px;"">+</div>","null","html-keyboard-response","47","122068","0.0-9.0-0.19","glzogz","Tue Feb 16 2021 23:37:56 GMT+0100 (Central European Standard Time)","2021","2","16","23","37","56","ii98","22","female","right","69","22","24","15","6","","","","","fixation","","","",""
"493.11999999918044","img/image_stim_f_stroop.png","70","image-keyboard-response","48","122564","0.0-9.0-1.19","glzogz","Tue Feb 16 2021 23:37:56 GMT+0100 (Central European Standard Time)","2021","2","16","23","37","56","ii98","22","female","right","69","22","24","15","6","","","","","test","fear","happy","f","true"
"null","<div style=""font-size:60px;"">+</div>","null","html-keyboard-response","49","124567","0.0-9.0-0.20","glzogz","Tue Feb 16 2021 23:37:56 GMT+0100 (Central European Standard Time)","2021","2","16","23","37","56","ii98","22","female","right","69","22","24","15","6","","","","","fixation","","","",""
"474.0299999975832","img/image_stim_f.png","70","image-keyboard-response","50","125044","0.0-9.0-1.20","glzogz","Tue Feb 16 2021 23:37:56 GMT+0100 (Central European Standard Time)","2021","2","16","23","37","56","ii98","22","female","right","69","22","24","15","6","","","","","test","fear","fear","f","true"
"null","<div style=""font-size:60px;"">+</div>","null","html-keyboard-response","51","126303","0.0-9.0-0.21","glzogz","Tue Feb 16 2021 23:37:56 GMT+0100 (Central European Standard Time)","2021","2","16","23","37","56","ii98","22","female","right","69","22","24","15","6","","","","","fixation","","","",""
"443.10000000405125","img/image_stim_f_stroop.png","70","image-keyboard-response","52","126748","0.0-9.0-1.21","glzogz","Tue Feb 16 2021 23:37:56 GMT+0100 (Central European Standard Time)","2021","2","16","23","37","56","ii98","22","female","right","69","22","24","15","6","","","","","test","fear","happy","f","true"
"null","<div style=""font-size:60px;"">+</div>","null","html-keyboard-response","53","128255","0.0-9.0-0.22","glzogz","Tue Feb 16 2021 23:37:56 GMT+0100 (Central European Standard Time)","2021","2","16","23","37","56","ii98","22","female","right","69","22","24","15","6","","","","","fixation","","","",""
"372.3000000027241","img/image_stim_h.png","72","image-keyboard-response","54","128629","0.0-9.0-1.22","glzogz","Tue Feb 16 2021 23:37:56 GMT+0100 (Central European Standard Time)","2021","2","16","23","37","56","ii98","22","female","right","69","22","24","15","6","","","","","test","happy","happy","h","true"
"null","<div style=""font-size:60px;"">+</div>","null","html-keyboard-response","55","130637","0.0-9.0-0.23","glzogz","Tue Feb 16 2021 23:37:56 GMT+0100 (Central European Standard Time)","2021","2","16","23","37","56","ii98","22","female","right","69","22","24","15","6","","","","","fixation","","","",""
"398.16500000597443","img/image_stim_h_stroop.png","72","image-keyboard-response","56","131038","0.0-9.0-1.23","glzogz","Tue Feb 16 2021 23:37:56 GMT+0100 (Central European Standard Time)","2021","2","16","23","37","56","ii98","22","female","right","69","22","24","15","6","","","","","test","happy","fear","h","true"
"null","<div style=""font-size:60px;"">+</div>","null","html-keyboard-response","57","132799","0.0-9.0-0.24","glzogz","Tue Feb 16 2021 23:37:56 GMT+0100 (Central European Standard Time)","2021","2","16","23","37","56","ii98","22","female","right","69","22","24","15","6","","","","","fixation","","","",""
"466.3750000036089","img/image_stim_f.png","70","image-keyboard-response","58","133267","0.0-9.0-1.24","glzogz","Tue Feb 16 2021 23:37:56 GMT+0100 (Central European Standard Time)","2021","2","16","23","37","56","ii98","22","female","right","69","22","24","15","6","","","","","test","fear","fear","f","true"
"null","<div style=""font-size:60px;"">+</div>","null","html-keyboard-response","59","135022","0.0-9.0-0.25","glzogz","Tue Feb 16 2021 23:37:56 GMT+0100 (Central European Standard Time)","2021","2","16","23","37","56","ii98","22","female","right","69","22","24","15","6","","","","","fixation","","","",""
"423.9450000022771","img/image_stim_f_stroop.png","70","image-keyboard-response","60","135449","0.0-9.0-1.25","glzogz","Tue Feb 16 2021 23:37:56 GMT+0100 (Central European Standard Time)","2021","2","16","23","37","56","ii98","22","female","right","69","22","24","15","6","","","","","test","fear","happy","f","true"
"null","<div style=""font-size:60px;"">+</div>","null","html-keyboard-response","61","136706","0.0-9.0-0.26","glzogz","Tue Feb 16 2021 23:37:56 GMT+0100 (Central European Standard Time)","2021","2","16","23","37","56","ii98","22","female","right","69","22","24","15","6","","","","","fixation","","","",""
"478.35000000486616","img/image_stim_h_stroop.png","72","image-keyboard-response","62","137186","0.0-9.0-1.26","glzogz","Tue Feb 16 2021 23:37:56 GMT+0100 (Central European Standard Time)","2021","2","16","23","37","56","ii98","22","female","right","69","22","24","15","6","","","","","test","happy","fear","h","true"
"null","<div style=""font-size:60px;"">+</div>","null","html-keyboard-response","63","138695","0.0-9.0-0.27","glzogz","Tue Feb 16 2021 23:37:56 GMT+0100 (Central European Standard Time)","2021","2","16","23","37","56","ii98","22","female","right","69","22","24","15","6","","","","","fixation","","","",""
"496.3599999900907","img/image_stim_h.png","72","image-keyboard-response","64","139194","0.0-9.0-1.27","glzogz","Tue Feb 16 2021 23:37:56 GMT+0100 (Central European Standard Time)","2021","2","16","23","37","56","ii98","22","female","right","69","22","24","15","6","","","","","test","happy","happy","h","true"
"null","<div style=""font-size:60px;"">+</div>","null","html-keyboard-response","65","140948","0.0-9.0-0.28","glzogz","Tue Feb 16 2021 23:37:56 GMT+0100 (Central European Standard Time)","2021","2","16","23","37","56","ii98","22","female","right","69","22","24","15","6","","","","","fixation","","","",""
"678.9150000113295","img/image_stim_h_stroop.png","72","image-keyboard-response","66","141629","0.0-9.0-1.28","glzogz","Tue Feb 16 2021 23:37:56 GMT+0100 (Central European Standard Time)","2021","2","16","23","37","56","ii98","22","female","right","69","22","24","15","6","","","","","test","happy","fear","h","true"
"null","<div style=""font-size:60px;"">+</div>","null","html-keyboard-response","67","141890","0.0-9.0-0.29","glzogz","Tue Feb 16 2021 23:37:56 GMT+0100 (Central European Standard Time)","2021","2","16","23","37","56","ii98","22","female","right","69","22","24","15","6","","","","","fixation","","","",""
"550.5050000065239","img/image_stim_f.png","70","image-keyboard-response","68","142443","0.0-9.0-1.29","glzogz","Tue Feb 16 2021 23:37:56 GMT+0100 (Central European Standard Time)","2021","2","16","23","37","56","ii98","22","female","right","69","22","24","15","6","","","","","test","fear","fear","f","true"
"null","<div style=""font-size:60px;"">+</div>","null","html-keyboard-response","69","142953","0.0-9.0-0.30","glzogz","Tue Feb 16 2021 23:37:56 GMT+0100 (Central European Standard Time)","2021","2","16","23","37","56","ii98","22","female","right","69","22","24","15","6","","","","","fixation","","","",""
"474.9299999966752","img/image_stim_h.png","72","image-keyboard-response","70","143430","0.0-9.0-1.30","glzogz","Tue Feb 16 2021 23:37:56 GMT+0100 (Central European Standard Time)","2021","2","16","23","37","56","ii98","22","female","right","69","22","24","15","6","","","","","test","happy","happy","h","true"
"null","<div style=""font-size:60px;"">+</div>","null","html-keyboard-response","71","144689","0.0-9.0-0.31","glzogz","Tue Feb 16 2021 23:37:56 GMT+0100 (Central European Standard Time)","2021","2","16","23","37","56","ii98","22","female","right","69","22","24","15","6","","","","","fixation","","","",""
"506.4450000063516","img/image_stim_f_stroop.png","70","image-keyboard-response","72","145199","0.0-9.0-1.31","glzogz","Tue Feb 16 2021 23:37:56 GMT+0100 (Central European Standard Time)","2021","2","16","23","37","56","ii98","22","female","right","69","22","24","15","6","","","","","test","fear","happy","f","true"
"null","<div style=""font-size:60px;"">+</div>","null","html-keyboard-response","73","146958","0.0-9.0-0.32","glzogz","Tue Feb 16 2021 23:37:56 GMT+0100 (Central European Standard Time)","2021","2","16","23","37","56","ii98","22","female","right","69","22","24","15","6","","","","","fixation","","","",""
"422.23499999090564","img/image_stim_f_stroop.png","70","image-keyboard-response","74","147383","0.0-9.0-1.32","glzogz","Tue Feb 16 2021 23:37:56 GMT+0100 (Central European Standard Time)","2021","2","16","23","37","56","ii98","22","female","right","69","22","24","15","6","","","","","test","fear","happy","f","true"
"null","<div style=""font-size:60px;"">+</div>","null","html-keyboard-response","75","147888","0.0-9.0-0.33","glzogz","Tue Feb 16 2021 23:37:56 GMT+0100 (Central European Standard Time)","2021","2","16","23","37","56","ii98","22","female","right","69","22","24","15","6","","","","","fixation","","","",""
"491.45500001031905","img/image_stim_h.png","72","image-keyboard-response","76","148381","0.0-9.0-1.33","glzogz","Tue Feb 16 2021 23:37:56 GMT+0100 (Central European Standard Time)","2021","2","16","23","37","56","ii98","22","female","right","69","22","24","15","6","","","","","test","happy","happy","h","true"
"null","<div style=""font-size:60px;"">+</div>","null","html-keyboard-response","77","149388","0.0-9.0-0.34","glzogz","Tue Feb 16 2021 23:37:56 GMT+0100 (Central European Standard Time)","2021","2","16","23","37","56","ii98","22","female","right","69","22","24","15","6","","","","","fixation","","","",""
"496.1849999963306","img/image_stim_h_stroop.png","70","image-keyboard-response","78","149886","0.0-9.0-1.34","glzogz","Tue Feb 16 2021 23:37:56 GMT+0100 (Central European Standard Time)","2021","2","16","23","37","56","ii98","22","female","right","69","22","24","15","6","","","","","test","happy","fear","h","false"
"null","<div style=""font-size:60px;"">+</div>","null","html-keyboard-response","79","150641","0.0-9.0-0.35","glzogz","Tue Feb 16 2021 23:37:56 GMT+0100 (Central European Standard Time)","2021","2","16","23","37","56","ii98","22","female","right","69","22","24","15","6","","","","","fixation","","","",""
"464.1950000077486","img/image_stim_f.png","70","image-keyboard-response","80","151108","0.0-9.0-1.35","glzogz","Tue Feb 16 2021 23:37:56 GMT+0100 (Central European Standard Time)","2021","2","16","23","37","56","ii98","22","female","right","69","22","24","15","6","","","","","test","fear","fear","f","true"
