"rt","stimulus","key_press","trial_type","trial_index","time_elapsed","internal_node_id","exp_id","Time","year","month","date","hour","minute","seconds","id","age","Gender","Handedness","mood","fresh","hunger","H_since_Sleep","H_since_Eat","responses","question_order","slider_start","response","test_part","face","word","correct_response","correct"
"2933","<p>Welcome to this experiment on daily rhythms and cognition.</p><p>First you will be asked some questions about yourself.</p><p>Then a short experiment will measure your response time.</p><p>Take the test at different times of the day/night.</p><p>The test is anonymous, but comparing your data across time is important.</p><p>Therefore, please make up and remember a personal ID (two letters+ two numbers).</p><p>Use this ID whenever taking the test.</p><p><strong>Press any key to begin.</strong></p>","32","html-keyboard-response","0","2936","0.0-0.0","spujhu","Tue Feb 16 2021 08:57:44 GMT+0100 (CET)","2021","2","16","8","57","44","mf13","22","female","right","55","11","6","0","11","","","","","","","","",""
"7409","","","survey-text","1","10378","0.0-1.0","spujhu","Tue Feb 16 2021 08:57:44 GMT+0100 (CET)","2021","2","16","8","57","44","mf13","22","female","right","55","11","6","0","11","{""Q0"":""mf13""}","","","","","","","",""
"3788.000000000002","","","survey-text","2","14172","0.0-2.0","spujhu","Tue Feb 16 2021 08:57:44 GMT+0100 (CET)","2021","2","16","8","57","44","mf13","22","female","right","55","11","6","0","11","{""Q0"":""22""}","","","","","","","",""
"3805","","","survey-multi-select","3","17982","0.0-3.0","spujhu","Tue Feb 16 2021 08:57:44 GMT+0100 (CET)","2021","2","16","8","57","44","mf13","22","female","right","55","11","6","0","11","{""Gender"":[""female""],""Hand"":[""right""]}","[0,1]","","","","","","",""
"3760","<p>How Sad/Angry or Happy are you right now?</p>","","html-slider-response","4","21744","0.0-4.0","spujhu","Tue Feb 16 2021 08:57:44 GMT+0100 (CET)","2021","2","16","8","57","44","mf13","22","female","right","55","11","6","0","11","","","50","55","","","","",""
"3612","<p>How Tired/Sleepy/Distracted or Fresh/Awake/Alert are you right now?</p>","","html-slider-response","5","25358","0.0-5.0","spujhu","Tue Feb 16 2021 08:57:44 GMT+0100 (CET)","2021","2","16","8","57","44","mf13","22","female","right","55","11","6","0","11","","","50","11","","","","",""
"4080","<p>How Hungry or Satiated are you right now?</p>","","html-slider-response","6","29440","0.0-6.0","spujhu","Tue Feb 16 2021 08:57:44 GMT+0100 (CET)","2021","2","16","8","57","44","mf13","22","female","right","55","11","6","0","11","","","50","6","","","","",""
"16540","","","survey-multi-select","7","45995","0.0-7.0","spujhu","Tue Feb 16 2021 08:57:44 GMT+0100 (CET)","2021","2","16","8","57","44","mf13","22","female","right","55","11","6","0","11","{""Sleep"":[""0""],""Eat"":[""11""]}","[0,1]","","","","","","",""
"13904","<p>In this experiment, a face and a word will appear in the center of the screen.</p><p>If the face is <strong>happy</strong>, press the letter <strong>H</strong> with <strong>right</strong> index finger.</p><p>If the face is <strong>fearful</strong>, press the letter <strong>F</strong> with <strong>left</strong> index finger.</p><p><strong>Ignore the written words</strong>. Respond as fast as possible while being correct. </p><div style='width: 900px;'><div style='float: left;'><img src='img/stimuli_stroop_happy.png'></img><p class='small'><strong>Press the H key for happy faces</strong></p></div><div class='float: right;'><img src='img/stimuli_stroop_fear.png'></img><p class='small'><strong>Press the F key for faces with fear</strong></p></div></div><p>If the screen turns blank, press <strong>SPACE</strong></p><p><strong>Press any key to begin.</strong></p>","32","html-keyboard-response","8","59901","0.0-8.0","spujhu","Tue Feb 16 2021 08:57:44 GMT+0100 (CET)","2021","2","16","8","57","44","mf13","22","female","right","55","11","6","0","11","","","","","","","","",""
"null","<div style=""font-size:60px;"">+</div>","null","html-keyboard-response","9","62404","0.0-9.0-0.0","spujhu","Tue Feb 16 2021 08:57:44 GMT+0100 (CET)","2021","2","16","8","57","44","mf13","22","female","right","55","11","6","0","11","","","","","fixation","","","",""
"491","img/image_stim_f_stroop.png","72","image-keyboard-response","10","62909","0.0-9.0-1.0","spujhu","Tue Feb 16 2021 08:57:44 GMT+0100 (CET)","2021","2","16","8","57","44","mf13","22","female","right","55","11","6","0","11","","","","","test","fear","happy","f","false"
"null","<div style=""font-size:60px;"">+</div>","null","html-keyboard-response","11","63418","0.0-9.0-0.1","spujhu","Tue Feb 16 2021 08:57:44 GMT+0100 (CET)","2021","2","16","8","57","44","mf13","22","female","right","55","11","6","0","11","","","","","fixation","","","",""
"671","img/image_stim_h.png","72","image-keyboard-response","12","64092","0.0-9.0-1.1","spujhu","Tue Feb 16 2021 08:57:44 GMT+0100 (CET)","2021","2","16","8","57","44","mf13","22","female","right","55","11","6","0","11","","","","","test","happy","happy","h","true"
"null","<div style=""font-size:60px;"">+</div>","null","html-keyboard-response","13","64345","0.0-9.0-0.2","spujhu","Tue Feb 16 2021 08:57:44 GMT+0100 (CET)","2021","2","16","8","57","44","mf13","22","female","right","55","11","6","0","11","","","","","fixation","","","",""
"482","img/image_stim_f.png","70","image-keyboard-response","14","64830","0.0-9.0-1.2","spujhu","Tue Feb 16 2021 08:57:44 GMT+0100 (CET)","2021","2","16","8","57","44","mf13","22","female","right","55","11","6","0","11","","","","","test","fear","fear","f","true"
"null","<div style=""font-size:60px;"">+</div>","null","html-keyboard-response","15","66335","0.0-9.0-0.3","spujhu","Tue Feb 16 2021 08:57:44 GMT+0100 (CET)","2021","2","16","8","57","44","mf13","22","female","right","55","11","6","0","11","","","","","fixation","","","",""
"389.00000000001455","img/image_stim_h_stroop.png","72","image-keyboard-response","16","66726","0.0-9.0-1.3","spujhu","Tue Feb 16 2021 08:57:44 GMT+0100 (CET)","2021","2","16","8","57","44","mf13","22","female","right","55","11","6","0","11","","","","","test","happy","fear","h","true"
"null","<div style=""font-size:60px;"">+</div>","null","html-keyboard-response","17","68730","0.0-9.0-0.4","spujhu","Tue Feb 16 2021 08:57:44 GMT+0100 (CET)","2021","2","16","8","57","44","mf13","22","female","right","55","11","6","0","11","","","","","fixation","","","",""
"478.00000000001455","img/image_stim_f_stroop.png","70","image-keyboard-response","18","69211","0.0-9.0-1.4","spujhu","Tue Feb 16 2021 08:57:44 GMT+0100 (CET)","2021","2","16","8","57","44","mf13","22","female","right","55","11","6","0","11","","","","","test","fear","happy","f","true"
"null","<div style=""font-size:60px;"">+</div>","null","html-keyboard-response","19","71215","0.0-9.0-0.5","spujhu","Tue Feb 16 2021 08:57:44 GMT+0100 (CET)","2021","2","16","8","57","44","mf13","22","female","right","55","11","6","0","11","","","","","fixation","","","",""
"712","img/image_stim_h_stroop.png","72","image-keyboard-response","20","71930","0.0-9.0-1.5","spujhu","Tue Feb 16 2021 08:57:44 GMT+0100 (CET)","2021","2","16","8","57","44","mf13","22","female","right","55","11","6","0","11","","","","","test","happy","fear","h","true"
"null","<div style=""font-size:60px;"">+</div>","null","html-keyboard-response","21","73434","0.0-9.0-0.6","spujhu","Tue Feb 16 2021 08:57:44 GMT+0100 (CET)","2021","2","16","8","57","44","mf13","22","female","right","55","11","6","0","11","","","","","fixation","","","",""
"657","img/image_stim_h.png","72","image-keyboard-response","22","74094","0.0-9.0-1.6","spujhu","Tue Feb 16 2021 08:57:44 GMT+0100 (CET)","2021","2","16","8","57","44","mf13","22","female","right","55","11","6","0","11","","","","","test","happy","happy","h","true"
"null","<div style=""font-size:60px;"">+</div>","null","html-keyboard-response","23","76099","0.0-9.0-0.7","spujhu","Tue Feb 16 2021 08:57:44 GMT+0100 (CET)","2021","2","16","8","57","44","mf13","22","female","right","55","11","6","0","11","","","","","fixation","","","",""
"442.99999999998545","img/image_stim_f.png","70","image-keyboard-response","24","76544","0.0-9.0-1.7","spujhu","Tue Feb 16 2021 08:57:44 GMT+0100 (CET)","2021","2","16","8","57","44","mf13","22","female","right","55","11","6","0","11","","","","","test","fear","fear","f","true"
"null","<div style=""font-size:60px;"">+</div>","null","html-keyboard-response","25","77298","0.0-9.0-0.8","spujhu","Tue Feb 16 2021 08:57:44 GMT+0100 (CET)","2021","2","16","8","57","44","mf13","22","female","right","55","11","6","0","11","","","","","fixation","","","",""
"576","img/image_stim_h.png","72","image-keyboard-response","26","77877","0.0-9.0-1.8","spujhu","Tue Feb 16 2021 08:57:44 GMT+0100 (CET)","2021","2","16","8","57","44","mf13","22","female","right","55","11","6","0","11","","","","","test","happy","happy","h","true"
"null","<div style=""font-size:60px;"">+</div>","null","html-keyboard-response","27","79881","0.0-9.0-0.9","spujhu","Tue Feb 16 2021 08:57:44 GMT+0100 (CET)","2021","2","16","8","57","44","mf13","22","female","right","55","11","6","0","11","","","","","fixation","","","",""
"484","img/image_stim_f_stroop.png","70","image-keyboard-response","28","80368","0.0-9.0-1.9","spujhu","Tue Feb 16 2021 08:57:44 GMT+0100 (CET)","2021","2","16","8","57","44","mf13","22","female","right","55","11","6","0","11","","","","","test","fear","happy","f","true"
"null","<div style=""font-size:60px;"">+</div>","null","html-keyboard-response","29","81123","0.0-9.0-0.10","spujhu","Tue Feb 16 2021 08:57:44 GMT+0100 (CET)","2021","2","16","8","57","44","mf13","22","female","right","55","11","6","0","11","","","","","fixation","","","",""
"444","img/image_stim_h_stroop.png","72","image-keyboard-response","30","81568","0.0-9.0-1.10","spujhu","Tue Feb 16 2021 08:57:44 GMT+0100 (CET)","2021","2","16","8","57","44","mf13","22","female","right","55","11","6","0","11","","","","","test","happy","fear","h","true"
"null","<div style=""font-size:60px;"">+</div>","null","html-keyboard-response","31","82573","0.0-9.0-0.11","spujhu","Tue Feb 16 2021 08:57:44 GMT+0100 (CET)","2021","2","16","8","57","44","mf13","22","female","right","55","11","6","0","11","","","","","fixation","","","",""
"430","img/image_stim_f.png","70","image-keyboard-response","32","83005","0.0-9.0-1.11","spujhu","Tue Feb 16 2021 08:57:44 GMT+0100 (CET)","2021","2","16","8","57","44","mf13","22","female","right","55","11","6","0","11","","","","","test","fear","fear","f","true"
"null","<div style=""font-size:60px;"">+</div>","null","html-keyboard-response","33","85009","0.0-9.0-0.12","spujhu","Tue Feb 16 2021 08:57:44 GMT+0100 (CET)","2021","2","16","8","57","44","mf13","22","female","right","55","11","6","0","11","","","","","fixation","","","",""
"432","img/image_stim_f.png","72","image-keyboard-response","34","85443","0.0-9.0-1.12","spujhu","Tue Feb 16 2021 08:57:44 GMT+0100 (CET)","2021","2","16","8","57","44","mf13","22","female","right","55","11","6","0","11","","","","","test","fear","fear","f","false"
"null","<div style=""font-size:60px;"">+</div>","null","html-keyboard-response","35","86698","0.0-9.0-0.13","spujhu","Tue Feb 16 2021 08:57:44 GMT+0100 (CET)","2021","2","16","8","57","44","mf13","22","female","right","55","11","6","0","11","","","","","fixation","","","",""
"450","img/image_stim_f_stroop.png","70","image-keyboard-response","36","87150","0.0-9.0-1.13","spujhu","Tue Feb 16 2021 08:57:44 GMT+0100 (CET)","2021","2","16","8","57","44","mf13","22","female","right","55","11","6","0","11","","","","","test","fear","happy","f","true"
"null","<div style=""font-size:60px;"">+</div>","null","html-keyboard-response","37","88155","0.0-9.0-0.14","spujhu","Tue Feb 16 2021 08:57:44 GMT+0100 (CET)","2021","2","16","8","57","44","mf13","22","female","right","55","11","6","0","11","","","","","fixation","","","",""
"483","img/image_stim_h.png","72","image-keyboard-response","38","88640","0.0-9.0-1.14","spujhu","Tue Feb 16 2021 08:57:44 GMT+0100 (CET)","2021","2","16","8","57","44","mf13","22","female","right","55","11","6","0","11","","","","","test","happy","happy","h","true"
"null","<div style=""font-size:60px;"">+</div>","null","html-keyboard-response","39","90395","0.0-9.0-0.15","spujhu","Tue Feb 16 2021 08:57:44 GMT+0100 (CET)","2021","2","16","8","57","44","mf13","22","female","right","55","11","6","0","11","","","","","fixation","","","",""
"540","img/image_stim_h_stroop.png","72","image-keyboard-response","40","90937","0.0-9.0-1.15","spujhu","Tue Feb 16 2021 08:57:44 GMT+0100 (CET)","2021","2","16","8","57","44","mf13","22","female","right","55","11","6","0","11","","","","","test","happy","fear","h","true"
"null","<div style=""font-size:60px;"">+</div>","null","html-keyboard-response","41","91442","0.0-9.0-0.16","spujhu","Tue Feb 16 2021 08:57:44 GMT+0100 (CET)","2021","2","16","8","57","44","mf13","22","female","right","55","11","6","0","11","","","","","fixation","","","",""
"557","img/image_stim_f_stroop.png","70","image-keyboard-response","42","92000","0.0-9.0-1.16","spujhu","Tue Feb 16 2021 08:57:44 GMT+0100 (CET)","2021","2","16","8","57","44","mf13","22","female","right","55","11","6","0","11","","","","","test","fear","happy","f","true"
"null","<div style=""font-size:60px;"">+</div>","null","html-keyboard-response","43","93756","0.0-9.0-0.17","spujhu","Tue Feb 16 2021 08:57:44 GMT+0100 (CET)","2021","2","16","8","57","44","mf13","22","female","right","55","11","6","0","11","","","","","fixation","","","",""
"460","img/image_stim_h_stroop.png","72","image-keyboard-response","44","94217","0.0-9.0-1.17","spujhu","Tue Feb 16 2021 08:57:44 GMT+0100 (CET)","2021","2","16","8","57","44","mf13","22","female","right","55","11","6","0","11","","","","","test","happy","fear","h","true"
"null","<div style=""font-size:60px;"">+</div>","null","html-keyboard-response","45","94972","0.0-9.0-0.18","spujhu","Tue Feb 16 2021 08:57:44 GMT+0100 (CET)","2021","2","16","8","57","44","mf13","22","female","right","55","11","6","0","11","","","","","fixation","","","",""
"397.00000000001455","img/image_stim_h.png","72","image-keyboard-response","46","95372","0.0-9.0-1.18","spujhu","Tue Feb 16 2021 08:57:44 GMT+0100 (CET)","2021","2","16","8","57","44","mf13","22","female","right","55","11","6","0","11","","","","","test","happy","happy","h","true"
"null","<div style=""font-size:60px;"">+</div>","null","html-keyboard-response","47","95877","0.0-9.0-0.19","spujhu","Tue Feb 16 2021 08:57:44 GMT+0100 (CET)","2021","2","16","8","57","44","mf13","22","female","right","55","11","6","0","11","","","","","fixation","","","",""
"498","img/image_stim_f.png","70","image-keyboard-response","48","96376","0.0-9.0-1.19","spujhu","Tue Feb 16 2021 08:57:44 GMT+0100 (CET)","2021","2","16","8","57","44","mf13","22","female","right","55","11","6","0","11","","","","","test","fear","fear","f","true"
"null","<div style=""font-size:60px;"">+</div>","null","html-keyboard-response","49","97881","0.0-9.0-0.20","spujhu","Tue Feb 16 2021 08:57:44 GMT+0100 (CET)","2021","2","16","8","57","44","mf13","22","female","right","55","11","6","0","11","","","","","fixation","","","",""
"402","img/image_stim_f.png","70","image-keyboard-response","50","98284","0.0-9.0-1.20","spujhu","Tue Feb 16 2021 08:57:44 GMT+0100 (CET)","2021","2","16","8","57","44","mf13","22","female","right","55","11","6","0","11","","","","","test","fear","fear","f","true"
"null","<div style=""font-size:60px;"">+</div>","null","html-keyboard-response","51","100039","0.0-9.0-0.21","spujhu","Tue Feb 16 2021 08:57:44 GMT+0100 (CET)","2021","2","16","8","57","44","mf13","22","female","right","55","11","6","0","11","","","","","fixation","","","",""
"344","img/image_stim_f_stroop.png","70","image-keyboard-response","52","100385","0.0-9.0-1.21","spujhu","Tue Feb 16 2021 08:57:44 GMT+0100 (CET)","2021","2","16","8","57","44","mf13","22","female","right","55","11","6","0","11","","","","","test","fear","happy","f","true"
"null","<div style=""font-size:60px;"">+</div>","null","html-keyboard-response","53","101891","0.0-9.0-0.22","spujhu","Tue Feb 16 2021 08:57:44 GMT+0100 (CET)","2021","2","16","8","57","44","mf13","22","female","right","55","11","6","0","11","","","","","fixation","","","",""
"366","img/image_stim_h_stroop.png","70","image-keyboard-response","54","102259","0.0-9.0-1.22","spujhu","Tue Feb 16 2021 08:57:44 GMT+0100 (CET)","2021","2","16","8","57","44","mf13","22","female","right","55","11","6","0","11","","","","","test","happy","fear","h","false"
"null","<div style=""font-size:60px;"">+</div>","null","html-keyboard-response","55","104265","0.0-9.0-0.23","spujhu","Tue Feb 16 2021 08:57:44 GMT+0100 (CET)","2021","2","16","8","57","44","mf13","22","female","right","55","11","6","0","11","","","","","fixation","","","",""
"407","img/image_stim_h.png","72","image-keyboard-response","56","104674","0.0-9.0-1.23","spujhu","Tue Feb 16 2021 08:57:44 GMT+0100 (CET)","2021","2","16","8","57","44","mf13","22","female","right","55","11","6","0","11","","","","","test","happy","happy","h","true"
"null","<div style=""font-size:60px;"">+</div>","null","html-keyboard-response","57","106429","0.0-9.0-0.24","spujhu","Tue Feb 16 2021 08:57:44 GMT+0100 (CET)","2021","2","16","8","57","44","mf13","22","female","right","55","11","6","0","11","","","","","fixation","","","",""
"477","img/image_stim_h_stroop.png","72","image-keyboard-response","58","106908","0.0-9.0-1.24","spujhu","Tue Feb 16 2021 08:57:44 GMT+0100 (CET)","2021","2","16","8","57","44","mf13","22","female","right","55","11","6","0","11","","","","","test","happy","fear","h","true"
"null","<div style=""font-size:60px;"">+</div>","null","html-keyboard-response","59","108413","0.0-9.0-0.25","spujhu","Tue Feb 16 2021 08:57:44 GMT+0100 (CET)","2021","2","16","8","57","44","mf13","22","female","right","55","11","6","0","11","","","","","fixation","","","",""
"430","img/image_stim_h.png","72","image-keyboard-response","60","108845","0.0-9.0-1.25","spujhu","Tue Feb 16 2021 08:57:44 GMT+0100 (CET)","2021","2","16","8","57","44","mf13","22","female","right","55","11","6","0","11","","","","","test","happy","happy","h","true"
"null","<div style=""font-size:60px;"">+</div>","null","html-keyboard-response","61","109099","0.0-9.0-0.26","spujhu","Tue Feb 16 2021 08:57:44 GMT+0100 (CET)","2021","2","16","8","57","44","mf13","22","female","right","55","11","6","0","11","","","","","fixation","","","",""
"694","img/image_stim_f_stroop.png","70","image-keyboard-response","62","109796","0.0-9.0-1.26","spujhu","Tue Feb 16 2021 08:57:44 GMT+0100 (CET)","2021","2","16","8","57","44","mf13","22","female","right","55","11","6","0","11","","","","","test","fear","happy","f","true"
"null","<div style=""font-size:60px;"">+</div>","null","html-keyboard-response","63","110301","0.0-9.0-0.27","spujhu","Tue Feb 16 2021 08:57:44 GMT+0100 (CET)","2021","2","16","8","57","44","mf13","22","female","right","55","11","6","0","11","","","","","fixation","","","",""
"493","img/image_stim_f.png","70","image-keyboard-response","64","110795","0.0-9.0-1.27","spujhu","Tue Feb 16 2021 08:57:44 GMT+0100 (CET)","2021","2","16","8","57","44","mf13","22","female","right","55","11","6","0","11","","","","","test","fear","fear","f","true"
"null","<div style=""font-size:60px;"">+</div>","null","html-keyboard-response","65","112551","0.0-9.0-0.28","spujhu","Tue Feb 16 2021 08:57:44 GMT+0100 (CET)","2021","2","16","8","57","44","mf13","22","female","right","55","11","6","0","11","","","","","fixation","","","",""
"418","img/image_stim_h_stroop.png","72","image-keyboard-response","66","112971","0.0-9.0-1.28","spujhu","Tue Feb 16 2021 08:57:44 GMT+0100 (CET)","2021","2","16","8","57","44","mf13","22","female","right","55","11","6","0","11","","","","","test","happy","fear","h","true"
"null","<div style=""font-size:60px;"">+</div>","null","html-keyboard-response","67","113726","0.0-9.0-0.29","spujhu","Tue Feb 16 2021 08:57:44 GMT+0100 (CET)","2021","2","16","8","57","44","mf13","22","female","right","55","11","6","0","11","","","","","fixation","","","",""
"363","img/image_stim_f.png","72","image-keyboard-response","68","114092","0.0-9.0-1.29","spujhu","Tue Feb 16 2021 08:57:44 GMT+0100 (CET)","2021","2","16","8","57","44","mf13","22","female","right","55","11","6","0","11","","","","","test","fear","fear","f","false"
"null","<div style=""font-size:60px;"">+</div>","null","html-keyboard-response","69","116098","0.0-9.0-0.30","spujhu","Tue Feb 16 2021 08:57:44 GMT+0100 (CET)","2021","2","16","8","57","44","mf13","22","female","right","55","11","6","0","11","","","","","fixation","","","",""
"452.99999999998545","img/image_stim_h.png","72","image-keyboard-response","70","116553","0.0-9.0-1.30","spujhu","Tue Feb 16 2021 08:57:44 GMT+0100 (CET)","2021","2","16","8","57","44","mf13","22","female","right","55","11","6","0","11","","","","","test","happy","happy","h","true"
"null","<div style=""font-size:60px;"">+</div>","null","html-keyboard-response","71","118059","0.0-9.0-0.31","spujhu","Tue Feb 16 2021 08:57:44 GMT+0100 (CET)","2021","2","16","8","57","44","mf13","22","female","right","55","11","6","0","11","","","","","fixation","","","",""
"427","img/image_stim_f_stroop.png","70","image-keyboard-response","72","118488","0.0-9.0-1.31","spujhu","Tue Feb 16 2021 08:57:44 GMT+0100 (CET)","2021","2","16","8","57","44","mf13","22","female","right","55","11","6","0","11","","","","","test","fear","happy","f","true"
"null","<div style=""font-size:60px;"">+</div>","null","html-keyboard-response","73","118994","0.0-9.0-0.32","spujhu","Tue Feb 16 2021 08:57:44 GMT+0100 (CET)","2021","2","16","8","57","44","mf13","22","female","right","55","11","6","0","11","","","","","fixation","","","",""
"426.99999999998545","img/image_stim_f_stroop.png","70","image-keyboard-response","74","119423","0.0-9.0-1.32","spujhu","Tue Feb 16 2021 08:57:44 GMT+0100 (CET)","2021","2","16","8","57","44","mf13","22","female","right","55","11","6","0","11","","","","","test","fear","happy","f","true"
"null","<div style=""font-size:60px;"">+</div>","null","html-keyboard-response","75","119679","0.0-9.0-0.33","spujhu","Tue Feb 16 2021 08:57:44 GMT+0100 (CET)","2021","2","16","8","57","44","mf13","22","female","right","55","11","6","0","11","","","","","fixation","","","",""
"357","img/image_stim_f.png","70","image-keyboard-response","76","120039","0.0-9.0-1.33","spujhu","Tue Feb 16 2021 08:57:44 GMT+0100 (CET)","2021","2","16","8","57","44","mf13","22","female","right","55","11","6","0","11","","","","","test","fear","fear","f","true"
"null","<div style=""font-size:60px;"">+</div>","null","html-keyboard-response","77","120545","0.0-9.0-0.34","spujhu","Tue Feb 16 2021 08:57:44 GMT+0100 (CET)","2021","2","16","8","57","44","mf13","22","female","right","55","11","6","0","11","","","","","fixation","","","",""
"485","img/image_stim_h.png","72","image-keyboard-response","78","121032","0.0-9.0-1.34","spujhu","Tue Feb 16 2021 08:57:44 GMT+0100 (CET)","2021","2","16","8","57","44","mf13","22","female","right","55","11","6","0","11","","","","","test","happy","happy","h","true"
"null","<div style=""font-size:60px;"">+</div>","null","html-keyboard-response","79","122038","0.0-9.0-0.35","spujhu","Tue Feb 16 2021 08:57:44 GMT+0100 (CET)","2021","2","16","8","57","44","mf13","22","female","right","55","11","6","0","11","","","","","fixation","","","",""
"469","img/image_stim_h_stroop.png","72","image-keyboard-response","80","122509","0.0-9.0-1.35","spujhu","Tue Feb 16 2021 08:57:44 GMT+0100 (CET)","2021","2","16","8","57","44","mf13","22","female","right","55","11","6","0","11","","","","","test","happy","fear","h","true"
