"rt","stimulus","key_press","trial_type","trial_index","time_elapsed","internal_node_id","exp_id","Time","year","month","date","hour","minute","seconds","id","age","Gender","Handedness","mood","fresh","hunger","H_since_Sleep","H_since_Eat","responses","question_order","slider_start","response","test_part","face","word","correct_response","correct"
"4486","<p>Welcome to this experiment on daily rhythms and cognition.</p><p>First you will be asked some questions about yourself.</p><p>Then a short experiment will measure your response time.</p><p>Take the test at different times of the day/night.</p><p>The test is anonymous, but comparing your data across time is important.</p><p>Therefore, please make up and remember a personal ID (two letters+ two numbers).</p><p>Use this ID whenever taking the test.</p><p><strong>Press any key to begin.</strong></p>","32","html-keyboard-response","0","4489","0.0-0.0","gfgb3s","Thu Feb 11 2021 22:46:52 GMT+0100 (CET)","2021","2","11","22","46","52","lp99","21","female","right","58","22","61","15","1","","","","","","","","",""
"3014","","","survey-text","1","7524","0.0-1.0","gfgb3s","Thu Feb 11 2021 22:46:52 GMT+0100 (CET)","2021","2","11","22","46","52","lp99","21","female","right","58","22","61","15","1","{""Q0"":""lp99""}","","","","","","","",""
"3014","","","survey-text","2","10546","0.0-2.0","gfgb3s","Thu Feb 11 2021 22:46:52 GMT+0100 (CET)","2021","2","11","22","46","52","lp99","21","female","right","58","22","61","15","1","{""Q0"":""21""}","","","","","","","",""
"5603","","","survey-multi-select","3","16153","0.0-3.0","gfgb3s","Thu Feb 11 2021 22:46:52 GMT+0100 (CET)","2021","2","11","22","46","52","lp99","21","female","right","58","22","61","15","1","{""Gender"":[""female""],""Hand"":[""right""]}","[0,1]","","","","","","",""
"3165","<p>How Sad/Angry or Happy are you right now?</p>","","html-slider-response","4","19320","0.0-4.0","gfgb3s","Thu Feb 11 2021 22:46:52 GMT+0100 (CET)","2021","2","11","22","46","52","lp99","21","female","right","58","22","61","15","1","","","50","58","","","","",""
"3440.9999999999964","<p>How Tired/Sleepy/Distracted or Fresh/Awake/Alert are you right now?</p>","","html-slider-response","5","22763","0.0-5.0","gfgb3s","Thu Feb 11 2021 22:46:52 GMT+0100 (CET)","2021","2","11","22","46","52","lp99","21","female","right","58","22","61","15","1","","","50","22","","","","",""
"4384","<p>How Hungry or Satiated are you right now?</p>","","html-slider-response","6","27149","0.0-6.0","gfgb3s","Thu Feb 11 2021 22:46:52 GMT+0100 (CET)","2021","2","11","22","46","52","lp99","21","female","right","58","22","61","15","1","","","50","61","","","","",""
"35779","","","survey-multi-select","7","62946","0.0-7.0","gfgb3s","Thu Feb 11 2021 22:46:52 GMT+0100 (CET)","2021","2","11","22","46","52","lp99","21","female","right","58","22","61","15","1","{""Sleep"":[""15""],""Eat"":[""1""]}","[0,1]","","","","","","",""
"5526","<p>In this experiment, a face and a word will appear in the center of the screen.</p><p>If the face is <strong>happy</strong>, press the letter <strong>H</strong> with <strong>right</strong> index finger.</p><p>If the face is <strong>fearful</strong>, press the letter <strong>F</strong> with <strong>left</strong> index finger.</p><p><strong>Ignore the written words</strong>. Respond as fast as possible while being correct. </p><div style='width: 900px;'><div style='float: left;'><img src='img/stimuli_stroop_happy.png'></img><p class='small'><strong>Press the H key for happy faces</strong></p></div><div class='float: right;'><img src='img/stimuli_stroop_fear.png'></img><p class='small'><strong>Press the F key for faces with fear</strong></p></div></div><p>If the screen turns blank, press <strong>SPACE</strong></p><p><strong>Press any key to begin.</strong></p>","72","html-keyboard-response","8","68473","0.0-8.0","gfgb3s","Thu Feb 11 2021 22:46:52 GMT+0100 (CET)","2021","2","11","22","46","52","lp99","21","female","right","58","22","61","15","1","","","","","","","","",""
"null","<div style=""font-size:60px;"">+</div>","null","html-keyboard-response","9","71726","0.0-9.0-0.0","gfgb3s","Thu Feb 11 2021 22:46:52 GMT+0100 (CET)","2021","2","11","22","46","52","lp99","21","female","right","58","22","61","15","1","","","","","fixation","","","",""
"1026","img/image_stim_h.png","72","image-keyboard-response","10","72757","0.0-9.0-1.0","gfgb3s","Thu Feb 11 2021 22:46:52 GMT+0100 (CET)","2021","2","11","22","46","52","lp99","21","female","right","58","22","61","15","1","","","","","test","happy","happy","h","true"
"null","<div style=""font-size:60px;"">+</div>","null","html-keyboard-response","11","74013","0.0-9.0-0.1","gfgb3s","Thu Feb 11 2021 22:46:52 GMT+0100 (CET)","2021","2","11","22","46","52","lp99","21","female","right","58","22","61","15","1","","","","","fixation","","","",""
"852","img/image_stim_h_stroop.png","72","image-keyboard-response","12","74867","0.0-9.0-1.1","gfgb3s","Thu Feb 11 2021 22:46:52 GMT+0100 (CET)","2021","2","11","22","46","52","lp99","21","female","right","58","22","61","15","1","","","","","test","happy","fear","h","true"
"null","<div style=""font-size:60px;"">+</div>","null","html-keyboard-response","13","76625","0.0-9.0-0.2","gfgb3s","Thu Feb 11 2021 22:46:52 GMT+0100 (CET)","2021","2","11","22","46","52","lp99","21","female","right","58","22","61","15","1","","","","","fixation","","","",""
"873","img/image_stim_f_stroop.png","70","image-keyboard-response","14","77500","0.0-9.0-1.2","gfgb3s","Thu Feb 11 2021 22:46:52 GMT+0100 (CET)","2021","2","11","22","46","52","lp99","21","female","right","58","22","61","15","1","","","","","test","fear","happy","f","true"
"null","<div style=""font-size:60px;"">+</div>","null","html-keyboard-response","15","77754","0.0-9.0-0.3","gfgb3s","Thu Feb 11 2021 22:46:52 GMT+0100 (CET)","2021","2","11","22","46","52","lp99","21","female","right","58","22","61","15","1","","","","","fixation","","","",""
"808","img/image_stim_f.png","70","image-keyboard-response","16","78564","0.0-9.0-1.3","gfgb3s","Thu Feb 11 2021 22:46:52 GMT+0100 (CET)","2021","2","11","22","46","52","lp99","21","female","right","58","22","61","15","1","","","","","test","fear","fear","f","true"
"null","<div style=""font-size:60px;"">+</div>","null","html-keyboard-response","17","80568","0.0-9.0-0.4","gfgb3s","Thu Feb 11 2021 22:46:52 GMT+0100 (CET)","2021","2","11","22","46","52","lp99","21","female","right","58","22","61","15","1","","","","","fixation","","","",""
"675","img/image_stim_h.png","72","image-keyboard-response","18","81245","0.0-9.0-1.4","gfgb3s","Thu Feb 11 2021 22:46:52 GMT+0100 (CET)","2021","2","11","22","46","52","lp99","21","female","right","58","22","61","15","1","","","","","test","happy","happy","h","true"
"null","<div style=""font-size:60px;"">+</div>","null","html-keyboard-response","19","82499","0.0-9.0-0.5","gfgb3s","Thu Feb 11 2021 22:46:52 GMT+0100 (CET)","2021","2","11","22","46","52","lp99","21","female","right","58","22","61","15","1","","","","","fixation","","","",""
"504","img/image_stim_h_stroop.png","72","image-keyboard-response","20","83008","0.0-9.0-1.5","gfgb3s","Thu Feb 11 2021 22:46:52 GMT+0100 (CET)","2021","2","11","22","46","52","lp99","21","female","right","58","22","61","15","1","","","","","test","happy","fear","h","true"
"null","<div style=""font-size:60px;"">+</div>","null","html-keyboard-response","21","83512","0.0-9.0-0.6","gfgb3s","Thu Feb 11 2021 22:46:52 GMT+0100 (CET)","2021","2","11","22","46","52","lp99","21","female","right","58","22","61","15","1","","","","","fixation","","","",""
"600","img/image_stim_f.png","70","image-keyboard-response","22","84115","0.0-9.0-1.6","gfgb3s","Thu Feb 11 2021 22:46:52 GMT+0100 (CET)","2021","2","11","22","46","52","lp99","21","female","right","58","22","61","15","1","","","","","test","fear","fear","f","true"
"null","<div style=""font-size:60px;"">+</div>","null","html-keyboard-response","23","85869","0.0-9.0-0.7","gfgb3s","Thu Feb 11 2021 22:46:52 GMT+0100 (CET)","2021","2","11","22","46","52","lp99","21","female","right","58","22","61","15","1","","","","","fixation","","","",""
"649","img/image_stim_f_stroop.png","70","image-keyboard-response","24","86523","0.0-9.0-1.7","gfgb3s","Thu Feb 11 2021 22:46:52 GMT+0100 (CET)","2021","2","11","22","46","52","lp99","21","female","right","58","22","61","15","1","","","","","test","fear","happy","f","true"
"null","<div style=""font-size:60px;"">+</div>","null","html-keyboard-response","25","86777","0.0-9.0-0.8","gfgb3s","Thu Feb 11 2021 22:46:52 GMT+0100 (CET)","2021","2","11","22","46","52","lp99","21","female","right","58","22","61","15","1","","","","","fixation","","","",""
"522","img/image_stim_f_stroop.png","70","image-keyboard-response","26","87301","0.0-9.0-1.8","gfgb3s","Thu Feb 11 2021 22:46:52 GMT+0100 (CET)","2021","2","11","22","46","52","lp99","21","female","right","58","22","61","15","1","","","","","test","fear","happy","f","true"
"null","<div style=""font-size:60px;"">+</div>","null","html-keyboard-response","27","88305","0.0-9.0-0.9","gfgb3s","Thu Feb 11 2021 22:46:52 GMT+0100 (CET)","2021","2","11","22","46","52","lp99","21","female","right","58","22","61","15","1","","","","","fixation","","","",""
"704.9999999999854","img/image_stim_h_stroop.png","72","image-keyboard-response","28","89015","0.0-9.0-1.9","gfgb3s","Thu Feb 11 2021 22:46:52 GMT+0100 (CET)","2021","2","11","22","46","52","lp99","21","female","right","58","22","61","15","1","","","","","test","happy","fear","h","true"
"null","<div style=""font-size:60px;"">+</div>","null","html-keyboard-response","29","89271","0.0-9.0-0.10","gfgb3s","Thu Feb 11 2021 22:46:52 GMT+0100 (CET)","2021","2","11","22","46","52","lp99","21","female","right","58","22","61","15","1","","","","","fixation","","","",""
"846","img/image_stim_f.png","70","image-keyboard-response","30","90119","0.0-9.0-1.10","gfgb3s","Thu Feb 11 2021 22:46:52 GMT+0100 (CET)","2021","2","11","22","46","52","lp99","21","female","right","58","22","61","15","1","","","","","test","fear","fear","f","true"
"null","<div style=""font-size:60px;"">+</div>","null","html-keyboard-response","31","91874","0.0-9.0-0.11","gfgb3s","Thu Feb 11 2021 22:46:52 GMT+0100 (CET)","2021","2","11","22","46","52","lp99","21","female","right","58","22","61","15","1","","","","","fixation","","","",""
"1117","img/image_stim_h.png","72","image-keyboard-response","32","92994","0.0-9.0-1.11","gfgb3s","Thu Feb 11 2021 22:46:52 GMT+0100 (CET)","2021","2","11","22","46","52","lp99","21","female","right","58","22","61","15","1","","","","","test","happy","happy","h","true"
"null","<div style=""font-size:60px;"">+</div>","null","html-keyboard-response","33","94999","0.0-9.0-0.12","gfgb3s","Thu Feb 11 2021 22:46:52 GMT+0100 (CET)","2021","2","11","22","46","52","lp99","21","female","right","58","22","61","15","1","","","","","fixation","","","",""
"825","img/image_stim_f_stroop.png","70","image-keyboard-response","34","95826","0.0-9.0-1.12","gfgb3s","Thu Feb 11 2021 22:46:52 GMT+0100 (CET)","2021","2","11","22","46","52","lp99","21","female","right","58","22","61","15","1","","","","","test","fear","happy","f","true"
"null","<div style=""font-size:60px;"">+</div>","null","html-keyboard-response","35","96831","0.0-9.0-0.13","gfgb3s","Thu Feb 11 2021 22:46:52 GMT+0100 (CET)","2021","2","11","22","46","52","lp99","21","female","right","58","22","61","15","1","","","","","fixation","","","",""
"483.00000000001455","img/image_stim_f.png","70","image-keyboard-response","36","97315","0.0-9.0-1.13","gfgb3s","Thu Feb 11 2021 22:46:52 GMT+0100 (CET)","2021","2","11","22","46","52","lp99","21","female","right","58","22","61","15","1","","","","","test","fear","fear","f","true"
"null","<div style=""font-size:60px;"">+</div>","null","html-keyboard-response","37","97571","0.0-9.0-0.14","gfgb3s","Thu Feb 11 2021 22:46:52 GMT+0100 (CET)","2021","2","11","22","46","52","lp99","21","female","right","58","22","61","15","1","","","","","fixation","","","",""
"1021","img/image_stim_h_stroop.png","72","image-keyboard-response","38","98593","0.0-9.0-1.14","gfgb3s","Thu Feb 11 2021 22:46:52 GMT+0100 (CET)","2021","2","11","22","46","52","lp99","21","female","right","58","22","61","15","1","","","","","test","happy","fear","h","true"
"null","<div style=""font-size:60px;"">+</div>","null","html-keyboard-response","39","99348","0.0-9.0-0.15","gfgb3s","Thu Feb 11 2021 22:46:52 GMT+0100 (CET)","2021","2","11","22","46","52","lp99","21","female","right","58","22","61","15","1","","","","","fixation","","","",""
"624","img/image_stim_h.png","72","image-keyboard-response","40","99975","0.0-9.0-1.15","gfgb3s","Thu Feb 11 2021 22:46:52 GMT+0100 (CET)","2021","2","11","22","46","52","lp99","21","female","right","58","22","61","15","1","","","","","test","happy","happy","h","true"
"null","<div style=""font-size:60px;"">+</div>","null","html-keyboard-response","41","100480","0.0-9.0-0.16","gfgb3s","Thu Feb 11 2021 22:46:52 GMT+0100 (CET)","2021","2","11","22","46","52","lp99","21","female","right","58","22","61","15","1","","","","","fixation","","","",""
"591","img/image_stim_f_stroop.png","70","image-keyboard-response","42","101073","0.0-9.0-1.16","gfgb3s","Thu Feb 11 2021 22:46:52 GMT+0100 (CET)","2021","2","11","22","46","52","lp99","21","female","right","58","22","61","15","1","","","","","test","fear","happy","f","true"
"null","<div style=""font-size:60px;"">+</div>","null","html-keyboard-response","43","103078","0.0-9.0-0.17","gfgb3s","Thu Feb 11 2021 22:46:52 GMT+0100 (CET)","2021","2","11","22","46","52","lp99","21","female","right","58","22","61","15","1","","","","","fixation","","","",""
"815","img/image_stim_h_stroop.png","72","image-keyboard-response","44","103894","0.0-9.0-1.17","gfgb3s","Thu Feb 11 2021 22:46:52 GMT+0100 (CET)","2021","2","11","22","46","52","lp99","21","female","right","58","22","61","15","1","","","","","test","happy","fear","h","true"
"null","<div style=""font-size:60px;"">+</div>","null","html-keyboard-response","45","104399","0.0-9.0-0.18","gfgb3s","Thu Feb 11 2021 22:46:52 GMT+0100 (CET)","2021","2","11","22","46","52","lp99","21","female","right","58","22","61","15","1","","","","","fixation","","","",""
"539.0000000000146","img/image_stim_h.png","72","image-keyboard-response","46","104941","0.0-9.0-1.18","gfgb3s","Thu Feb 11 2021 22:46:52 GMT+0100 (CET)","2021","2","11","22","46","52","lp99","21","female","right","58","22","61","15","1","","","","","test","happy","happy","h","true"
"null","<div style=""font-size:60px;"">+</div>","null","html-keyboard-response","47","106949","0.0-9.0-0.19","gfgb3s","Thu Feb 11 2021 22:46:52 GMT+0100 (CET)","2021","2","11","22","46","52","lp99","21","female","right","58","22","61","15","1","","","","","fixation","","","",""
"484.00000000001455","img/image_stim_f.png","70","image-keyboard-response","48","107434","0.0-9.0-1.19","gfgb3s","Thu Feb 11 2021 22:46:52 GMT+0100 (CET)","2021","2","11","22","46","52","lp99","21","female","right","58","22","61","15","1","","","","","test","fear","fear","f","true"
"null","<div style=""font-size:60px;"">+</div>","null","html-keyboard-response","49","107939","0.0-9.0-0.20","gfgb3s","Thu Feb 11 2021 22:46:52 GMT+0100 (CET)","2021","2","11","22","46","52","lp99","21","female","right","58","22","61","15","1","","","","","fixation","","","",""
"505.00000000001455","img/image_stim_h_stroop.png","72","image-keyboard-response","50","108447","0.0-9.0-1.20","gfgb3s","Thu Feb 11 2021 22:46:52 GMT+0100 (CET)","2021","2","11","22","46","52","lp99","21","female","right","58","22","61","15","1","","","","","test","happy","fear","h","true"
"null","<div style=""font-size:60px;"">+</div>","null","html-keyboard-response","51","109202","0.0-9.0-0.21","gfgb3s","Thu Feb 11 2021 22:46:52 GMT+0100 (CET)","2021","2","11","22","46","52","lp99","21","female","right","58","22","61","15","1","","","","","fixation","","","",""
"1081","img/image_stim_f.png","70","image-keyboard-response","52","110285","0.0-9.0-1.21","gfgb3s","Thu Feb 11 2021 22:46:52 GMT+0100 (CET)","2021","2","11","22","46","52","lp99","21","female","right","58","22","61","15","1","","","","","test","fear","fear","f","true"
"null","<div style=""font-size:60px;"">+</div>","null","html-keyboard-response","53","112290","0.0-9.0-0.22","gfgb3s","Thu Feb 11 2021 22:46:52 GMT+0100 (CET)","2021","2","11","22","46","52","lp99","21","female","right","58","22","61","15","1","","","","","fixation","","","",""
"795.0000000000146","img/image_stim_h.png","72","image-keyboard-response","54","113087","0.0-9.0-1.22","gfgb3s","Thu Feb 11 2021 22:46:52 GMT+0100 (CET)","2021","2","11","22","46","52","lp99","21","female","right","58","22","61","15","1","","","","","test","happy","happy","h","true"
"null","<div style=""font-size:60px;"">+</div>","null","html-keyboard-response","55","113841","0.0-9.0-0.23","gfgb3s","Thu Feb 11 2021 22:46:52 GMT+0100 (CET)","2021","2","11","22","46","52","lp99","21","female","right","58","22","61","15","1","","","","","fixation","","","",""
"885.9999999999854","img/image_stim_f_stroop.png","70","image-keyboard-response","56","114729","0.0-9.0-1.23","gfgb3s","Thu Feb 11 2021 22:46:52 GMT+0100 (CET)","2021","2","11","22","46","52","lp99","21","female","right","58","22","61","15","1","","","","","test","fear","happy","f","true"
"null","<div style=""font-size:60px;"">+</div>","null","html-keyboard-response","57","116735","0.0-9.0-0.24","gfgb3s","Thu Feb 11 2021 22:46:52 GMT+0100 (CET)","2021","2","11","22","46","52","lp99","21","female","right","58","22","61","15","1","","","","","fixation","","","",""
"974","img/image_stim_h_stroop.png","72","image-keyboard-response","58","117711","0.0-9.0-1.24","gfgb3s","Thu Feb 11 2021 22:46:52 GMT+0100 (CET)","2021","2","11","22","46","52","lp99","21","female","right","58","22","61","15","1","","","","","test","happy","fear","h","true"
"null","<div style=""font-size:60px;"">+</div>","null","html-keyboard-response","59","118716","0.0-9.0-0.25","gfgb3s","Thu Feb 11 2021 22:46:52 GMT+0100 (CET)","2021","2","11","22","46","52","lp99","21","female","right","58","22","61","15","1","","","","","fixation","","","",""
"567.9999999999854","img/image_stim_f_stroop.png","70","image-keyboard-response","60","119286","0.0-9.0-1.25","gfgb3s","Thu Feb 11 2021 22:46:52 GMT+0100 (CET)","2021","2","11","22","46","52","lp99","21","female","right","58","22","61","15","1","","","","","test","fear","happy","f","true"
"null","<div style=""font-size:60px;"">+</div>","null","html-keyboard-response","61","119791","0.0-9.0-0.26","gfgb3s","Thu Feb 11 2021 22:46:52 GMT+0100 (CET)","2021","2","11","22","46","52","lp99","21","female","right","58","22","61","15","1","","","","","fixation","","","",""
"769","img/image_stim_h.png","72","image-keyboard-response","62","120562","0.0-9.0-1.26","gfgb3s","Thu Feb 11 2021 22:46:52 GMT+0100 (CET)","2021","2","11","22","46","52","lp99","21","female","right","58","22","61","15","1","","","","","test","happy","happy","h","true"
"null","<div style=""font-size:60px;"">+</div>","null","html-keyboard-response","63","120817","0.0-9.0-0.27","gfgb3s","Thu Feb 11 2021 22:46:52 GMT+0100 (CET)","2021","2","11","22","46","52","lp99","21","female","right","58","22","61","15","1","","","","","fixation","","","",""
"694.9999999999854","img/image_stim_f.png","70","image-keyboard-response","64","121514","0.0-9.0-1.27","gfgb3s","Thu Feb 11 2021 22:46:52 GMT+0100 (CET)","2021","2","11","22","46","52","lp99","21","female","right","58","22","61","15","1","","","","","test","fear","fear","f","true"
"null","<div style=""font-size:60px;"">+</div>","null","html-keyboard-response","65","123519","0.0-9.0-0.28","gfgb3s","Thu Feb 11 2021 22:46:52 GMT+0100 (CET)","2021","2","11","22","46","52","lp99","21","female","right","58","22","61","15","1","","","","","fixation","","","",""
"555","img/image_stim_f.png","70","image-keyboard-response","66","124079","0.0-9.0-1.28","gfgb3s","Thu Feb 11 2021 22:46:52 GMT+0100 (CET)","2021","2","11","22","46","52","lp99","21","female","right","58","22","61","15","1","","","","","test","fear","fear","f","true"
"null","<div style=""font-size:60px;"">+</div>","null","html-keyboard-response","67","125835","0.0-9.0-0.29","gfgb3s","Thu Feb 11 2021 22:46:52 GMT+0100 (CET)","2021","2","11","22","46","52","lp99","21","female","right","58","22","61","15","1","","","","","fixation","","","",""
"598","img/image_stim_h_stroop.png","72","image-keyboard-response","68","126435","0.0-9.0-1.29","gfgb3s","Thu Feb 11 2021 22:46:52 GMT+0100 (CET)","2021","2","11","22","46","52","lp99","21","female","right","58","22","61","15","1","","","","","test","happy","fear","h","true"
"null","<div style=""font-size:60px;"">+</div>","null","html-keyboard-response","69","127691","0.0-9.0-0.30","gfgb3s","Thu Feb 11 2021 22:46:52 GMT+0100 (CET)","2021","2","11","22","46","52","lp99","21","female","right","58","22","61","15","1","","","","","fixation","","","",""
"592.9999999999854","img/image_stim_h.png","72","image-keyboard-response","70","128289","0.0-9.0-1.30","gfgb3s","Thu Feb 11 2021 22:46:52 GMT+0100 (CET)","2021","2","11","22","46","52","lp99","21","female","right","58","22","61","15","1","","","","","test","happy","happy","h","true"
"null","<div style=""font-size:60px;"">+</div>","null","html-keyboard-response","71","129795","0.0-9.0-0.31","gfgb3s","Thu Feb 11 2021 22:46:52 GMT+0100 (CET)","2021","2","11","22","46","52","lp99","21","female","right","58","22","61","15","1","","","","","fixation","","","",""
"2032","img/image_stim_f_stroop.png","70","image-keyboard-response","72","131829","0.0-9.0-1.31","gfgb3s","Thu Feb 11 2021 22:46:52 GMT+0100 (CET)","2021","2","11","22","46","52","lp99","21","female","right","58","22","61","15","1","","","","","test","fear","happy","f","true"
"null","<div style=""font-size:60px;"">+</div>","null","html-keyboard-response","73","132084","0.0-9.0-0.32","gfgb3s","Thu Feb 11 2021 22:46:52 GMT+0100 (CET)","2021","2","11","22","46","52","lp99","21","female","right","58","22","61","15","1","","","","","fixation","","","",""
"860","img/image_stim_h.png","72","image-keyboard-response","74","132946","0.0-9.0-1.32","gfgb3s","Thu Feb 11 2021 22:46:52 GMT+0100 (CET)","2021","2","11","22","46","52","lp99","21","female","right","58","22","61","15","1","","","","","test","happy","happy","h","true"
"null","<div style=""font-size:60px;"">+</div>","null","html-keyboard-response","75","134952","0.0-9.0-0.33","gfgb3s","Thu Feb 11 2021 22:46:52 GMT+0100 (CET)","2021","2","11","22","46","52","lp99","21","female","right","58","22","61","15","1","","","","","fixation","","","",""
"996","img/image_stim_h_stroop.png","72","image-keyboard-response","76","135953","0.0-9.0-1.33","gfgb3s","Thu Feb 11 2021 22:46:52 GMT+0100 (CET)","2021","2","11","22","46","52","lp99","21","female","right","58","22","61","15","1","","","","","test","happy","fear","h","true"
"null","<div style=""font-size:60px;"">+</div>","null","html-keyboard-response","77","137459","0.0-9.0-0.34","gfgb3s","Thu Feb 11 2021 22:46:52 GMT+0100 (CET)","2021","2","11","22","46","52","lp99","21","female","right","58","22","61","15","1","","","","","fixation","","","",""
"515","img/image_stim_f_stroop.png","70","image-keyboard-response","78","137976","0.0-9.0-1.34","gfgb3s","Thu Feb 11 2021 22:46:52 GMT+0100 (CET)","2021","2","11","22","46","52","lp99","21","female","right","58","22","61","15","1","","","","","test","fear","happy","f","true"
"null","<div style=""font-size:60px;"">+</div>","null","html-keyboard-response","79","138732","0.0-9.0-0.35","gfgb3s","Thu Feb 11 2021 22:46:52 GMT+0100 (CET)","2021","2","11","22","46","52","lp99","21","female","right","58","22","61","15","1","","","","","fixation","","","",""
"573","img/image_stim_f.png","70","image-keyboard-response","80","139307","0.0-9.0-1.35","gfgb3s","Thu Feb 11 2021 22:46:52 GMT+0100 (CET)","2021","2","11","22","46","52","lp99","21","female","right","58","22","61","15","1","","","","","test","fear","fear","f","true"
