"rt","stimulus","key_press","trial_type","trial_index","time_elapsed","internal_node_id","exp_id","Time","year","month","date","hour","minute","seconds","id","age","Gender","Handedness","mood","fresh","hunger","H_since_Sleep","H_since_Eat","responses","question_order","slider_start","response","test_part","face","word","correct_response","correct"
"698506","<p>Welcome to this experiment on daily rhythms and cognition.</p><p>First you will be asked some questions about yourself.</p><p>Then a short experiment will measure your response time.</p><p>Take the test at different times of the day/night.</p><p>The test is anonymous, but comparing your data across time is important.</p><p>Therefore, please make up and remember a personal ID (two letters+ two numbers).</p><p>Use this ID whenever taking the test.</p><p><strong>Press any key to begin.</strong></p>","32","html-keyboard-response","0","1643685","0.0-0.0","jx5dol","Thu Feb 18 2021 03:47:49 GMT+0900 (KST)","2021","2","18","3","47","49","sc12","21, 20","female","right","50","50","36","10","6","","","","","","","","",""
"3932","","","survey-text","1","1647632","0.0-1.0","jx5dol","Thu Feb 18 2021 03:47:49 GMT+0900 (KST)","2021","2","18","3","47","49","sc12","21, 20","female","right","50","50","36","10","6","{""Q0"":""sc12""}","","","","","","","",""
"9152","","","survey-text","2","1656788","0.0-2.0","jx5dol","Thu Feb 18 2021 03:47:49 GMT+0900 (KST)","2021","2","18","3","47","49","sc12","21, 20","female","right","50","50","36","10","6","{""Q0"":""21, 20""}","","","","","","","",""
"5213","","","survey-multi-select","3","1662002","0.0-3.0","jx5dol","Thu Feb 18 2021 03:47:49 GMT+0900 (KST)","2021","2","18","3","47","49","sc12","21, 20","female","right","50","50","36","10","6","{""Gender"":[""female""],""Hand"":[""right""]}","[0,1]","","","","","","",""
"2838.9999999998836","<p>How Sad/Angry or Happy are you right now?</p>","","html-slider-response","4","1664845","0.0-4.0","jx5dol","Thu Feb 18 2021 03:47:49 GMT+0900 (KST)","2021","2","18","3","47","49","sc12","21, 20","female","right","50","50","36","10","6","","","50","50","","","","",""
"8964","<p>How Tired/Sleepy/Distracted or Fresh/Awake/Alert are you right now?</p>","","html-slider-response","5","1673809","0.0-5.0","jx5dol","Thu Feb 18 2021 03:47:49 GMT+0900 (KST)","2021","2","18","3","47","49","sc12","21, 20","female","right","50","50","36","10","6","","","50","50","","","","",""
"9299","<p>How Hungry or Satiated are you right now?</p>","","html-slider-response","6","1683111","0.0-6.0","jx5dol","Thu Feb 18 2021 03:47:49 GMT+0900 (KST)","2021","2","18","3","47","49","sc12","21, 20","female","right","50","50","36","10","6","","","50","36","","","","",""
"26948.999999999884","","","survey-multi-select","7","1710071","0.0-7.0","jx5dol","Thu Feb 18 2021 03:47:49 GMT+0900 (KST)","2021","2","18","3","47","49","sc12","21, 20","female","right","50","50","36","10","6","{""Sleep"":[""10""],""Eat"":[""6""]}","[0,1]","","","","","","",""
"5987","<p>In this experiment, a face and a word will appear in the center of the screen.</p><p>If the face is <strong>happy</strong>, press the letter <strong>H</strong> with <strong>right</strong> index finger.</p><p>If the face is <strong>fearful</strong>, press the letter <strong>F</strong> with <strong>left</strong> index finger.</p><p><strong>Ignore the written words</strong>. Respond as fast as possible while being correct. </p><div style='width: 900px;'><div style='float: left;'><img src='img/stimuli_stroop_happy.png'></img><p class='small'><strong>Press the H key for happy faces</strong></p></div><div class='float: right;'><img src='img/stimuli_stroop_fear.png'></img><p class='small'><strong>Press the F key for faces with fear</strong></p></div></div><p>If the screen turns blank, press <strong>SPACE</strong></p><p><strong>Press any key to begin.</strong></p>","32","html-keyboard-response","8","1716059","0.0-8.0","jx5dol","Thu Feb 18 2021 03:47:49 GMT+0900 (KST)","2021","2","18","3","47","49","sc12","21, 20","female","right","50","50","36","10","6","","","","","","","","",""
"null","<div style=""font-size:60px;"">+</div>","null","html-keyboard-response","9","1719813","0.0-9.0-0.0","jx5dol","Thu Feb 18 2021 03:47:49 GMT+0900 (KST)","2021","2","18","3","47","49","sc12","21, 20","female","right","50","50","36","10","6","","","","","fixation","","","",""
"3173","img/image_stim_f_stroop.png","70","image-keyboard-response","10","1722989","0.0-9.0-1.0","jx5dol","Thu Feb 18 2021 03:47:49 GMT+0900 (KST)","2021","2","18","3","47","49","sc12","21, 20","female","right","50","50","36","10","6","","","","","test","fear","happy","f","true"
"null","<div style=""font-size:60px;"">+</div>","null","html-keyboard-response","11","1723492","0.0-9.0-0.1","jx5dol","Thu Feb 18 2021 03:47:49 GMT+0900 (KST)","2021","2","18","3","47","49","sc12","21, 20","female","right","50","50","36","10","6","","","","","fixation","","","",""
"1163","img/image_stim_f.png","70","image-keyboard-response","12","1724657","0.0-9.0-1.1","jx5dol","Thu Feb 18 2021 03:47:49 GMT+0900 (KST)","2021","2","18","3","47","49","sc12","21, 20","female","right","50","50","36","10","6","","","","","test","fear","fear","f","true"
"null","<div style=""font-size:60px;"">+</div>","null","html-keyboard-response","13","1726410","0.0-9.0-0.2","jx5dol","Thu Feb 18 2021 03:47:49 GMT+0900 (KST)","2021","2","18","3","47","49","sc12","21, 20","female","right","50","50","36","10","6","","","","","fixation","","","",""
"560","img/image_stim_h.png","72","image-keyboard-response","14","1726971","0.0-9.0-1.2","jx5dol","Thu Feb 18 2021 03:47:49 GMT+0900 (KST)","2021","2","18","3","47","49","sc12","21, 20","female","right","50","50","36","10","6","","","","","test","happy","happy","h","true"
"null","<div style=""font-size:60px;"">+</div>","null","html-keyboard-response","15","1727973","0.0-9.0-0.3","jx5dol","Thu Feb 18 2021 03:47:49 GMT+0900 (KST)","2021","2","18","3","47","49","sc12","21, 20","female","right","50","50","36","10","6","","","","","fixation","","","",""
"534","img/image_stim_h_stroop.png","72","image-keyboard-response","16","1728509","0.0-9.0-1.3","jx5dol","Thu Feb 18 2021 03:47:49 GMT+0900 (KST)","2021","2","18","3","47","49","sc12","21, 20","female","right","50","50","36","10","6","","","","","test","happy","fear","h","true"
"null","<div style=""font-size:60px;"">+</div>","null","html-keyboard-response","17","1729262","0.0-9.0-0.4","jx5dol","Thu Feb 18 2021 03:47:49 GMT+0900 (KST)","2021","2","18","3","47","49","sc12","21, 20","female","right","50","50","36","10","6","","","","","fixation","","","",""
"549","img/image_stim_f_stroop.png","70","image-keyboard-response","18","1729813","0.0-9.0-1.4","jx5dol","Thu Feb 18 2021 03:47:49 GMT+0900 (KST)","2021","2","18","3","47","49","sc12","21, 20","female","right","50","50","36","10","6","","","","","test","fear","happy","f","true"
"null","<div style=""font-size:60px;"">+</div>","null","html-keyboard-response","19","1731066","0.0-9.0-0.5","jx5dol","Thu Feb 18 2021 03:47:49 GMT+0900 (KST)","2021","2","18","3","47","49","sc12","21, 20","female","right","50","50","36","10","6","","","","","fixation","","","",""
"472","img/image_stim_h.png","72","image-keyboard-response","20","1731539","0.0-9.0-1.5","jx5dol","Thu Feb 18 2021 03:47:49 GMT+0900 (KST)","2021","2","18","3","47","49","sc12","21, 20","female","right","50","50","36","10","6","","","","","test","happy","happy","h","true"
"null","<div style=""font-size:60px;"">+</div>","null","html-keyboard-response","21","1732542","0.0-9.0-0.6","jx5dol","Thu Feb 18 2021 03:47:49 GMT+0900 (KST)","2021","2","18","3","47","49","sc12","21, 20","female","right","50","50","36","10","6","","","","","fixation","","","",""
"660","img/image_stim_f.png","70","image-keyboard-response","22","1733203","0.0-9.0-1.6","jx5dol","Thu Feb 18 2021 03:47:49 GMT+0900 (KST)","2021","2","18","3","47","49","sc12","21, 20","female","right","50","50","36","10","6","","","","","test","fear","fear","f","true"
"null","<div style=""font-size:60px;"">+</div>","null","html-keyboard-response","23","1733456","0.0-9.0-0.7","jx5dol","Thu Feb 18 2021 03:47:49 GMT+0900 (KST)","2021","2","18","3","47","49","sc12","21, 20","female","right","50","50","36","10","6","","","","","fixation","","","",""
"591","img/image_stim_h_stroop.png","72","image-keyboard-response","24","1734048","0.0-9.0-1.7","jx5dol","Thu Feb 18 2021 03:47:49 GMT+0900 (KST)","2021","2","18","3","47","49","sc12","21, 20","female","right","50","50","36","10","6","","","","","test","happy","fear","h","true"
"null","<div style=""font-size:60px;"">+</div>","null","html-keyboard-response","25","1734801","0.0-9.0-0.8","jx5dol","Thu Feb 18 2021 03:47:49 GMT+0900 (KST)","2021","2","18","3","47","49","sc12","21, 20","female","right","50","50","36","10","6","","","","","fixation","","","",""
"552","img/image_stim_h.png","72","image-keyboard-response","26","1735355","0.0-9.0-1.8","jx5dol","Thu Feb 18 2021 03:47:49 GMT+0900 (KST)","2021","2","18","3","47","49","sc12","21, 20","female","right","50","50","36","10","6","","","","","test","happy","happy","h","true"
"null","<div style=""font-size:60px;"">+</div>","null","html-keyboard-response","27","1736358","0.0-9.0-0.9","jx5dol","Thu Feb 18 2021 03:47:49 GMT+0900 (KST)","2021","2","18","3","47","49","sc12","21, 20","female","right","50","50","36","10","6","","","","","fixation","","","",""
"447","img/image_stim_f.png","70","image-keyboard-response","28","1736806","0.0-9.0-1.9","jx5dol","Thu Feb 18 2021 03:47:49 GMT+0900 (KST)","2021","2","18","3","47","49","sc12","21, 20","female","right","50","50","36","10","6","","","","","test","fear","fear","f","true"
"null","<div style=""font-size:60px;"">+</div>","null","html-keyboard-response","29","1737559","0.0-9.0-0.10","jx5dol","Thu Feb 18 2021 03:47:49 GMT+0900 (KST)","2021","2","18","3","47","49","sc12","21, 20","female","right","50","50","36","10","6","","","","","fixation","","","",""
"812.0000000001164","img/image_stim_f_stroop.png","70","image-keyboard-response","30","1738372","0.0-9.0-1.10","jx5dol","Thu Feb 18 2021 03:47:49 GMT+0900 (KST)","2021","2","18","3","47","49","sc12","21, 20","female","right","50","50","36","10","6","","","","","test","fear","happy","f","true"
"null","<div style=""font-size:60px;"">+</div>","null","html-keyboard-response","31","1739875","0.0-9.0-0.11","jx5dol","Thu Feb 18 2021 03:47:49 GMT+0900 (KST)","2021","2","18","3","47","49","sc12","21, 20","female","right","50","50","36","10","6","","","","","fixation","","","",""
"629","img/image_stim_h_stroop.png","72","image-keyboard-response","32","1740505","0.0-9.0-1.11","jx5dol","Thu Feb 18 2021 03:47:49 GMT+0900 (KST)","2021","2","18","3","47","49","sc12","21, 20","female","right","50","50","36","10","6","","","","","test","happy","fear","h","true"
"null","<div style=""font-size:60px;"">+</div>","null","html-keyboard-response","33","1741258","0.0-9.0-0.12","jx5dol","Thu Feb 18 2021 03:47:49 GMT+0900 (KST)","2021","2","18","3","47","49","sc12","21, 20","female","right","50","50","36","10","6","","","","","fixation","","","",""
"510","img/image_stim_h_stroop.png","72","image-keyboard-response","34","1741770","0.0-9.0-1.12","jx5dol","Thu Feb 18 2021 03:47:49 GMT+0900 (KST)","2021","2","18","3","47","49","sc12","21, 20","female","right","50","50","36","10","6","","","","","test","happy","fear","h","true"
"null","<div style=""font-size:60px;"">+</div>","null","html-keyboard-response","35","1742772","0.0-9.0-0.13","jx5dol","Thu Feb 18 2021 03:47:49 GMT+0900 (KST)","2021","2","18","3","47","49","sc12","21, 20","female","right","50","50","36","10","6","","","","","fixation","","","",""
"656","img/image_stim_f_stroop.png","70","image-keyboard-response","36","1743429","0.0-9.0-1.13","jx5dol","Thu Feb 18 2021 03:47:49 GMT+0900 (KST)","2021","2","18","3","47","49","sc12","21, 20","female","right","50","50","36","10","6","","","","","test","fear","happy","f","true"
"null","<div style=""font-size:60px;"">+</div>","null","html-keyboard-response","37","1744932","0.0-9.0-0.14","jx5dol","Thu Feb 18 2021 03:47:49 GMT+0900 (KST)","2021","2","18","3","47","49","sc12","21, 20","female","right","50","50","36","10","6","","","","","fixation","","","",""
"416","img/image_stim_f.png","72","image-keyboard-response","38","1745349","0.0-9.0-1.14","jx5dol","Thu Feb 18 2021 03:47:49 GMT+0900 (KST)","2021","2","18","3","47","49","sc12","21, 20","female","right","50","50","36","10","6","","","","","test","fear","fear","f","false"
"null","<div style=""font-size:60px;"">+</div>","null","html-keyboard-response","39","1746352","0.0-9.0-0.15","jx5dol","Thu Feb 18 2021 03:47:49 GMT+0900 (KST)","2021","2","18","3","47","49","sc12","21, 20","female","right","50","50","36","10","6","","","","","fixation","","","",""
"437.9999999998836","img/image_stim_h.png","72","image-keyboard-response","40","1746791","0.0-9.0-1.15","jx5dol","Thu Feb 18 2021 03:47:49 GMT+0900 (KST)","2021","2","18","3","47","49","sc12","21, 20","female","right","50","50","36","10","6","","","","","test","happy","happy","h","true"
"null","<div style=""font-size:60px;"">+</div>","null","html-keyboard-response","41","1747794","0.0-9.0-0.16","jx5dol","Thu Feb 18 2021 03:47:49 GMT+0900 (KST)","2021","2","18","3","47","49","sc12","21, 20","female","right","50","50","36","10","6","","","","","fixation","","","",""
"599","img/image_stim_h.png","72","image-keyboard-response","42","1748396","0.0-9.0-1.16","jx5dol","Thu Feb 18 2021 03:47:49 GMT+0900 (KST)","2021","2","18","3","47","49","sc12","21, 20","female","right","50","50","36","10","6","","","","","test","happy","happy","h","true"
"null","<div style=""font-size:60px;"">+</div>","null","html-keyboard-response","43","1750398","0.0-9.0-0.17","jx5dol","Thu Feb 18 2021 03:47:49 GMT+0900 (KST)","2021","2","18","3","47","49","sc12","21, 20","female","right","50","50","36","10","6","","","","","fixation","","","",""
"513","img/image_stim_h_stroop.png","70","image-keyboard-response","44","1750912","0.0-9.0-1.17","jx5dol","Thu Feb 18 2021 03:47:49 GMT+0900 (KST)","2021","2","18","3","47","49","sc12","21, 20","female","right","50","50","36","10","6","","","","","test","happy","fear","h","false"
"null","<div style=""font-size:60px;"">+</div>","null","html-keyboard-response","45","1752916","0.0-9.0-0.18","jx5dol","Thu Feb 18 2021 03:47:49 GMT+0900 (KST)","2021","2","18","3","47","49","sc12","21, 20","female","right","50","50","36","10","6","","","","","fixation","","","",""
"660","img/image_stim_f.png","70","image-keyboard-response","46","1753577","0.0-9.0-1.18","jx5dol","Thu Feb 18 2021 03:47:49 GMT+0900 (KST)","2021","2","18","3","47","49","sc12","21, 20","female","right","50","50","36","10","6","","","","","test","fear","fear","f","true"
"null","<div style=""font-size:60px;"">+</div>","null","html-keyboard-response","47","1754580","0.0-9.0-0.19","jx5dol","Thu Feb 18 2021 03:47:49 GMT+0900 (KST)","2021","2","18","3","47","49","sc12","21, 20","female","right","50","50","36","10","6","","","","","fixation","","","",""
"1362","img/image_stim_f_stroop.png","70","image-keyboard-response","48","1755943","0.0-9.0-1.19","jx5dol","Thu Feb 18 2021 03:47:49 GMT+0900 (KST)","2021","2","18","3","47","49","sc12","21, 20","female","right","50","50","36","10","6","","","","","test","fear","happy","f","true"
"null","<div style=""font-size:60px;"">+</div>","null","html-keyboard-response","49","1757195","0.0-9.0-0.20","jx5dol","Thu Feb 18 2021 03:47:49 GMT+0900 (KST)","2021","2","18","3","47","49","sc12","21, 20","female","right","50","50","36","10","6","","","","","fixation","","","",""
"559","img/image_stim_h_stroop.png","72","image-keyboard-response","50","1757755","0.0-9.0-1.20","jx5dol","Thu Feb 18 2021 03:47:49 GMT+0900 (KST)","2021","2","18","3","47","49","sc12","21, 20","female","right","50","50","36","10","6","","","","","test","happy","fear","h","true"
"null","<div style=""font-size:60px;"">+</div>","null","html-keyboard-response","51","1758508","0.0-9.0-0.21","jx5dol","Thu Feb 18 2021 03:47:49 GMT+0900 (KST)","2021","2","18","3","47","49","sc12","21, 20","female","right","50","50","36","10","6","","","","","fixation","","","",""
"600","img/image_stim_f_stroop.png","70","image-keyboard-response","52","1759110","0.0-9.0-1.21","jx5dol","Thu Feb 18 2021 03:47:49 GMT+0900 (KST)","2021","2","18","3","47","49","sc12","21, 20","female","right","50","50","36","10","6","","","","","test","fear","happy","f","true"
"null","<div style=""font-size:60px;"">+</div>","null","html-keyboard-response","53","1760614","0.0-9.0-0.22","jx5dol","Thu Feb 18 2021 03:47:49 GMT+0900 (KST)","2021","2","18","3","47","49","sc12","21, 20","female","right","50","50","36","10","6","","","","","fixation","","","",""
"513","img/image_stim_f.png","70","image-keyboard-response","54","1761128","0.0-9.0-1.22","jx5dol","Thu Feb 18 2021 03:47:49 GMT+0900 (KST)","2021","2","18","3","47","49","sc12","21, 20","female","right","50","50","36","10","6","","","","","test","fear","fear","f","true"
"null","<div style=""font-size:60px;"">+</div>","null","html-keyboard-response","55","1763132","0.0-9.0-0.23","jx5dol","Thu Feb 18 2021 03:47:49 GMT+0900 (KST)","2021","2","18","3","47","49","sc12","21, 20","female","right","50","50","36","10","6","","","","","fixation","","","",""
"664","img/image_stim_h.png","72","image-keyboard-response","56","1763797","0.0-9.0-1.23","jx5dol","Thu Feb 18 2021 03:47:49 GMT+0900 (KST)","2021","2","18","3","47","49","sc12","21, 20","female","right","50","50","36","10","6","","","","","test","happy","happy","h","true"
"null","<div style=""font-size:60px;"">+</div>","null","html-keyboard-response","57","1765301","0.0-9.0-0.24","jx5dol","Thu Feb 18 2021 03:47:49 GMT+0900 (KST)","2021","2","18","3","47","49","sc12","21, 20","female","right","50","50","36","10","6","","","","","fixation","","","",""
"536","img/image_stim_f_stroop.png","70","image-keyboard-response","58","1765838","0.0-9.0-1.24","jx5dol","Thu Feb 18 2021 03:47:49 GMT+0900 (KST)","2021","2","18","3","47","49","sc12","21, 20","female","right","50","50","36","10","6","","","","","test","fear","happy","f","true"
"null","<div style=""font-size:60px;"">+</div>","null","html-keyboard-response","59","1767092","0.0-9.0-0.25","jx5dol","Thu Feb 18 2021 03:47:49 GMT+0900 (KST)","2021","2","18","3","47","49","sc12","21, 20","female","right","50","50","36","10","6","","","","","fixation","","","",""
"494.9999999998836","img/image_stim_h_stroop.png","72","image-keyboard-response","60","1767589","0.0-9.0-1.25","jx5dol","Thu Feb 18 2021 03:47:49 GMT+0900 (KST)","2021","2","18","3","47","49","sc12","21, 20","female","right","50","50","36","10","6","","","","","test","happy","fear","h","true"
"null","<div style=""font-size:60px;"">+</div>","null","html-keyboard-response","61","1769342","0.0-9.0-0.26","jx5dol","Thu Feb 18 2021 03:47:49 GMT+0900 (KST)","2021","2","18","3","47","49","sc12","21, 20","female","right","50","50","36","10","6","","","","","fixation","","","",""
"564.9999999998836","img/image_stim_f.png","70","image-keyboard-response","62","1769908","0.0-9.0-1.26","jx5dol","Thu Feb 18 2021 03:47:49 GMT+0900 (KST)","2021","2","18","3","47","49","sc12","21, 20","female","right","50","50","36","10","6","","","","","test","fear","fear","f","true"
"null","<div style=""font-size:60px;"">+</div>","null","html-keyboard-response","63","1770411","0.0-9.0-0.27","jx5dol","Thu Feb 18 2021 03:47:49 GMT+0900 (KST)","2021","2","18","3","47","49","sc12","21, 20","female","right","50","50","36","10","6","","","","","fixation","","","",""
"595","img/image_stim_h.png","72","image-keyboard-response","64","1771008","0.0-9.0-1.27","jx5dol","Thu Feb 18 2021 03:47:49 GMT+0900 (KST)","2021","2","18","3","47","49","sc12","21, 20","female","right","50","50","36","10","6","","","","","test","happy","happy","h","true"
"null","<div style=""font-size:60px;"">+</div>","null","html-keyboard-response","65","1772512","0.0-9.0-0.28","jx5dol","Thu Feb 18 2021 03:47:49 GMT+0900 (KST)","2021","2","18","3","47","49","sc12","21, 20","female","right","50","50","36","10","6","","","","","fixation","","","",""
"982","img/image_stim_f.png","70","image-keyboard-response","66","1773495","0.0-9.0-1.28","jx5dol","Thu Feb 18 2021 03:47:49 GMT+0900 (KST)","2021","2","18","3","47","49","sc12","21, 20","female","right","50","50","36","10","6","","","","","test","fear","fear","f","true"
"null","<div style=""font-size:60px;"">+</div>","null","html-keyboard-response","67","1773998","0.0-9.0-0.29","jx5dol","Thu Feb 18 2021 03:47:49 GMT+0900 (KST)","2021","2","18","3","47","49","sc12","21, 20","female","right","50","50","36","10","6","","","","","fixation","","","",""
"695.0000000001164","img/image_stim_f_stroop.png","70","image-keyboard-response","68","1774694","0.0-9.0-1.29","jx5dol","Thu Feb 18 2021 03:47:49 GMT+0900 (KST)","2021","2","18","3","47","49","sc12","21, 20","female","right","50","50","36","10","6","","","","","test","fear","happy","f","true"
"null","<div style=""font-size:60px;"">+</div>","null","html-keyboard-response","69","1775697","0.0-9.0-0.30","jx5dol","Thu Feb 18 2021 03:47:49 GMT+0900 (KST)","2021","2","18","3","47","49","sc12","21, 20","female","right","50","50","36","10","6","","","","","fixation","","","",""
"532","img/image_stim_h.png","72","image-keyboard-response","70","1776230","0.0-9.0-1.30","jx5dol","Thu Feb 18 2021 03:47:49 GMT+0900 (KST)","2021","2","18","3","47","49","sc12","21, 20","female","right","50","50","36","10","6","","","","","test","happy","happy","h","true"
"null","<div style=""font-size:60px;"">+</div>","null","html-keyboard-response","71","1776734","0.0-9.0-0.31","jx5dol","Thu Feb 18 2021 03:47:49 GMT+0900 (KST)","2021","2","18","3","47","49","sc12","21, 20","female","right","50","50","36","10","6","","","","","fixation","","","",""
"603","img/image_stim_h_stroop.png","72","image-keyboard-response","72","1777338","0.0-9.0-1.31","jx5dol","Thu Feb 18 2021 03:47:49 GMT+0900 (KST)","2021","2","18","3","47","49","sc12","21, 20","female","right","50","50","36","10","6","","","","","test","happy","fear","h","true"
"null","<div style=""font-size:60px;"">+</div>","null","html-keyboard-response","73","1778842","0.0-9.0-0.32","jx5dol","Thu Feb 18 2021 03:47:49 GMT+0900 (KST)","2021","2","18","3","47","49","sc12","21, 20","female","right","50","50","36","10","6","","","","","fixation","","","",""
"508.9999999998836","img/image_stim_f.png","70","image-keyboard-response","74","1779352","0.0-9.0-1.32","jx5dol","Thu Feb 18 2021 03:47:49 GMT+0900 (KST)","2021","2","18","3","47","49","sc12","21, 20","female","right","50","50","36","10","6","","","","","test","fear","fear","f","true"
"null","<div style=""font-size:60px;"">+</div>","null","html-keyboard-response","75","1781105","0.0-9.0-0.33","jx5dol","Thu Feb 18 2021 03:47:49 GMT+0900 (KST)","2021","2","18","3","47","49","sc12","21, 20","female","right","50","50","36","10","6","","","","","fixation","","","",""
"479","img/image_stim_h_stroop.png","72","image-keyboard-response","76","1781586","0.0-9.0-1.33","jx5dol","Thu Feb 18 2021 03:47:49 GMT+0900 (KST)","2021","2","18","3","47","49","sc12","21, 20","female","right","50","50","36","10","6","","","","","test","happy","fear","h","true"
"null","<div style=""font-size:60px;"">+</div>","null","html-keyboard-response","77","1781839","0.0-9.0-0.34","jx5dol","Thu Feb 18 2021 03:47:49 GMT+0900 (KST)","2021","2","18","3","47","49","sc12","21, 20","female","right","50","50","36","10","6","","","","","fixation","","","",""
"628","img/image_stim_f_stroop.png","70","image-keyboard-response","78","1782469","0.0-9.0-1.34","jx5dol","Thu Feb 18 2021 03:47:49 GMT+0900 (KST)","2021","2","18","3","47","49","sc12","21, 20","female","right","50","50","36","10","6","","","","","test","fear","happy","f","true"
"null","<div style=""font-size:60px;"">+</div>","null","html-keyboard-response","79","1782973","0.0-9.0-0.35","jx5dol","Thu Feb 18 2021 03:47:49 GMT+0900 (KST)","2021","2","18","3","47","49","sc12","21, 20","female","right","50","50","36","10","6","","","","","fixation","","","",""
"586","img/image_stim_h.png","72","image-keyboard-response","80","1783561","0.0-9.0-1.35","jx5dol","Thu Feb 18 2021 03:47:49 GMT+0900 (KST)","2021","2","18","3","47","49","sc12","21, 20","female","right","50","50","36","10","6","","","","","test","happy","happy","h","true"
