"rt","stimulus","key_press","trial_type","trial_index","time_elapsed","internal_node_id","exp_id","Time","year","month","date","hour","minute","seconds","id","age","Gender","Handedness","mood","fresh","hunger","H_since_Sleep","H_since_Eat","responses","question_order","slider_start","response","test_part","face","word","correct_response","correct"
"24377.404999977443","<p>Welcome to this experiment on daily rhythms and cognition.</p><p>First you will be asked some questions about yourself.</p><p>Then a short experiment will measure your response time.</p><p>Take the test at different times of the day/night.</p><p>The test is anonymous, but comparing your data across time is important.</p><p>Therefore, please make up and remember a personal ID (two letters+ two numbers).</p><p>Use this ID whenever taking the test.</p><p><strong>Press any key to begin.</strong></p>","82","html-keyboard-response","0","24378","0.0-0.0","0oozdd","Sun Feb 07 2021 22:05:02 GMT+0100 (Central European Standard Time)","2021","2","7","22","5","2","hh17","15","male","left","82","12","52","16","2","","","","","","","","",""
"5010.719999962021","","","survey-text","1","29392","0.0-1.0","0oozdd","Sun Feb 07 2021 22:05:02 GMT+0100 (Central European Standard Time)","2021","2","7","22","5","2","hh17","15","male","left","82","12","52","16","2","{""Q0"":""hh17""}","","","","","","","",""
"5370.500000019092","","","survey-text","2","34765","0.0-2.0","0oozdd","Sun Feb 07 2021 22:05:02 GMT+0100 (Central European Standard Time)","2021","2","7","22","5","2","hh17","15","male","left","82","12","52","16","2","{""Q0"":""15""}","","","","","","","",""
"3182.2400000528432","","","survey-multi-select","3","37949","0.0-3.0","0oozdd","Sun Feb 07 2021 22:05:02 GMT+0100 (Central European Standard Time)","2021","2","7","22","5","2","hh17","15","male","left","82","12","52","16","2","{""Gender"":[""male""],""Hand"":[""left""]}","[0,1]","","","","","","",""
"7401.26999997301","<p>How Sad/Angry or Happy are you right now?</p>","","html-slider-response","4","45352","0.0-4.0","0oozdd","Sun Feb 07 2021 22:05:02 GMT+0100 (Central European Standard Time)","2021","2","7","22","5","2","hh17","15","male","left","82","12","52","16","2","","","50","82","","","","",""
"12141.79999998305","<p>How Tired/Sleepy/Distracted or Fresh/Awake/Alert are you right now?</p>","","html-slider-response","5","57494","0.0-5.0","0oozdd","Sun Feb 07 2021 22:05:02 GMT+0100 (Central European Standard Time)","2021","2","7","22","5","2","hh17","15","male","left","82","12","52","16","2","","","50","12","","","","",""
"9564.985000004526","<p>How Hungry or Satiated are you right now?</p>","","html-slider-response","6","67060","0.0-6.0","0oozdd","Sun Feb 07 2021 22:05:02 GMT+0100 (Central European Standard Time)","2021","2","7","22","5","2","hh17","15","male","left","82","12","52","16","2","","","50","52","","","","",""
"50673.69999998482","","","survey-multi-select","7","117747","0.0-7.0","0oozdd","Sun Feb 07 2021 22:05:02 GMT+0100 (Central European Standard Time)","2021","2","7","22","5","2","hh17","15","male","left","82","12","52","16","2","{""Sleep"":[""16""],""Eat"":[""2""]}","[0,1]","","","","","","",""
"8196.815000032075","<p>In this experiment, a face and a word will appear in the center of the screen.</p><p>If the face is <strong>happy</strong>, press the letter <strong>H</strong> with <strong>right</strong> index finger.</p><p>If the face is <strong>fearful</strong>, press the letter <strong>F</strong> with <strong>left</strong> index finger.</p><p><strong>Ignore the written words</strong>. Respond as fast as possible while being correct. </p><div style='width: 900px;'><div style='float: left;'><img src='img/stimuli_stroop_happy.png'></img><p class='small'><strong>Press the H key for happy faces</strong></p></div><div class='float: right;'><img src='img/stimuli_stroop_fear.png'></img><p class='small'><strong>Press the F key for faces with fear</strong></p></div></div><p>If the screen turns blank, press <strong>SPACE</strong></p><p><strong>Press any key to begin.</strong></p>","72","html-keyboard-response","8","125945","0.0-8.0","0oozdd","Sun Feb 07 2021 22:05:02 GMT+0100 (Central European Standard Time)","2021","2","7","22","5","2","hh17","15","male","left","82","12","52","16","2","","","","","","","","",""
"null","<div style=""font-size:60px;"">+</div>","null","html-keyboard-response","9","128452","0.0-9.0-0.0","0oozdd","Sun Feb 07 2021 22:05:02 GMT+0100 (Central European Standard Time)","2021","2","7","22","5","2","hh17","15","male","left","82","12","52","16","2","","","","","fixation","","","",""
"717.7250000531785","img/image_stim_f.png","32","image-keyboard-response","10","129171","0.0-9.0-1.0","0oozdd","Sun Feb 07 2021 22:05:02 GMT+0100 (Central European Standard Time)","2021","2","7","22","5","2","hh17","15","male","left","82","12","52","16","2","","","","","test","fear","fear","f","false"
"null","<div style=""font-size:60px;"">+</div>","null","html-keyboard-response","11","130923","0.0-9.0-0.1","0oozdd","Sun Feb 07 2021 22:05:02 GMT+0100 (Central European Standard Time)","2021","2","7","22","5","2","hh17","15","male","left","82","12","52","16","2","","","","","fixation","","","",""
"509.8349999752827","img/image_stim_f_stroop.png","32","image-keyboard-response","12","131434","0.0-9.0-1.1","0oozdd","Sun Feb 07 2021 22:05:02 GMT+0100 (Central European Standard Time)","2021","2","7","22","5","2","hh17","15","male","left","82","12","52","16","2","","","","","test","fear","happy","f","false"
"null","<div style=""font-size:60px;"">+</div>","null","html-keyboard-response","13","133190","0.0-9.0-0.2","0oozdd","Sun Feb 07 2021 22:05:02 GMT+0100 (Central European Standard Time)","2021","2","7","22","5","2","hh17","15","male","left","82","12","52","16","2","","","","","fixation","","","",""
"1235.584999958519","img/image_stim_h_stroop.png","32","image-keyboard-response","14","134426","0.0-9.0-1.2","0oozdd","Sun Feb 07 2021 22:05:02 GMT+0100 (Central European Standard Time)","2021","2","7","22","5","2","hh17","15","male","left","82","12","52","16","2","","","","","test","happy","fear","h","false"
"null","<div style=""font-size:60px;"">+</div>","null","html-keyboard-response","15","136432","0.0-9.0-0.3","0oozdd","Sun Feb 07 2021 22:05:02 GMT+0100 (Central European Standard Time)","2021","2","7","22","5","2","hh17","15","male","left","82","12","52","16","2","","","","","fixation","","","",""
"1026.6300000366755","img/image_stim_h.png","32","image-keyboard-response","16","137460","0.0-9.0-1.3","0oozdd","Sun Feb 07 2021 22:05:02 GMT+0100 (Central European Standard Time)","2021","2","7","22","5","2","hh17","15","male","left","82","12","52","16","2","","","","","test","happy","happy","h","false"
"null","<div style=""font-size:60px;"">+</div>","null","html-keyboard-response","17","138713","0.0-9.0-0.4","0oozdd","Sun Feb 07 2021 22:05:02 GMT+0100 (Central European Standard Time)","2021","2","7","22","5","2","hh17","15","male","left","82","12","52","16","2","","","","","fixation","","","",""
"631.4549999660812","img/image_stim_f_stroop.png","72","image-keyboard-response","18","139346","0.0-9.0-1.4","0oozdd","Sun Feb 07 2021 22:05:02 GMT+0100 (Central European Standard Time)","2021","2","7","22","5","2","hh17","15","male","left","82","12","52","16","2","","","","","test","fear","happy","f","false"
"null","<div style=""font-size:60px;"">+</div>","null","html-keyboard-response","19","139599","0.0-9.0-0.5","0oozdd","Sun Feb 07 2021 22:05:02 GMT+0100 (Central European Standard Time)","2021","2","7","22","5","2","hh17","15","male","left","82","12","52","16","2","","","","","fixation","","","",""
"1176.6500000376254","img/image_stim_h_stroop.png","72","image-keyboard-response","20","140777","0.0-9.0-1.5","0oozdd","Sun Feb 07 2021 22:05:02 GMT+0100 (Central European Standard Time)","2021","2","7","22","5","2","hh17","15","male","left","82","12","52","16","2","","","","","test","happy","fear","h","true"
"null","<div style=""font-size:60px;"">+</div>","null","html-keyboard-response","21","142284","0.0-9.0-0.6","0oozdd","Sun Feb 07 2021 22:05:02 GMT+0100 (Central European Standard Time)","2021","2","7","22","5","2","hh17","15","male","left","82","12","52","16","2","","","","","fixation","","","",""
"1118.1150000193156","img/image_stim_f.png","70","image-keyboard-response","22","143404","0.0-9.0-1.6","0oozdd","Sun Feb 07 2021 22:05:02 GMT+0100 (Central European Standard Time)","2021","2","7","22","5","2","hh17","15","male","left","82","12","52","16","2","","","","","test","fear","fear","f","true"
"null","<div style=""font-size:60px;"">+</div>","null","html-keyboard-response","23","145162","0.0-9.0-0.7","0oozdd","Sun Feb 07 2021 22:05:02 GMT+0100 (Central European Standard Time)","2021","2","7","22","5","2","hh17","15","male","left","82","12","52","16","2","","","","","fixation","","","",""
"952.3700000136159","img/image_stim_h.png","72","image-keyboard-response","24","146116","0.0-9.0-1.7","0oozdd","Sun Feb 07 2021 22:05:02 GMT+0100 (Central European Standard Time)","2021","2","7","22","5","2","hh17","15","male","left","82","12","52","16","2","","","","","test","happy","happy","h","true"
"null","<div style=""font-size:60px;"">+</div>","null","html-keyboard-response","25","147123","0.0-9.0-0.8","0oozdd","Sun Feb 07 2021 22:05:02 GMT+0100 (Central European Standard Time)","2021","2","7","22","5","2","hh17","15","male","left","82","12","52","16","2","","","","","fixation","","","",""
"1039.775000012014","img/image_stim_f_stroop.png","70","image-keyboard-response","26","148164","0.0-9.0-1.8","0oozdd","Sun Feb 07 2021 22:05:02 GMT+0100 (Central European Standard Time)","2021","2","7","22","5","2","hh17","15","male","left","82","12","52","16","2","","","","","test","fear","happy","f","true"
"null","<div style=""font-size:60px;"">+</div>","null","html-keyboard-response","27","148919","0.0-9.0-0.9","0oozdd","Sun Feb 07 2021 22:05:02 GMT+0100 (Central European Standard Time)","2021","2","7","22","5","2","hh17","15","male","left","82","12","52","16","2","","","","","fixation","","","",""
"743.7899999786168","img/image_stim_h_stroop.png","72","image-keyboard-response","28","149663","0.0-9.0-1.9","0oozdd","Sun Feb 07 2021 22:05:02 GMT+0100 (Central European Standard Time)","2021","2","7","22","5","2","hh17","15","male","left","82","12","52","16","2","","","","","test","happy","fear","h","true"
"null","<div style=""font-size:60px;"">+</div>","null","html-keyboard-response","29","151670","0.0-9.0-0.10","0oozdd","Sun Feb 07 2021 22:05:02 GMT+0100 (Central European Standard Time)","2021","2","7","22","5","2","hh17","15","male","left","82","12","52","16","2","","","","","fixation","","","",""
"658.510000037495","img/image_stim_f.png","70","image-keyboard-response","30","152330","0.0-9.0-1.10","0oozdd","Sun Feb 07 2021 22:05:02 GMT+0100 (Central European Standard Time)","2021","2","7","22","5","2","hh17","15","male","left","82","12","52","16","2","","","","","test","fear","fear","f","true"
"null","<div style=""font-size:60px;"">+</div>","null","html-keyboard-response","31","153085","0.0-9.0-0.11","0oozdd","Sun Feb 07 2021 22:05:02 GMT+0100 (Central European Standard Time)","2021","2","7","22","5","2","hh17","15","male","left","82","12","52","16","2","","","","","fixation","","","",""
"930.0149999908172","img/image_stim_h.png","72","image-keyboard-response","32","154015","0.0-9.0-1.11","0oozdd","Sun Feb 07 2021 22:05:02 GMT+0100 (Central European Standard Time)","2021","2","7","22","5","2","hh17","15","male","left","82","12","52","16","2","","","","","test","happy","happy","h","true"
"null","<div style=""font-size:60px;"">+</div>","null","html-keyboard-response","33","156020","0.0-9.0-0.12","0oozdd","Sun Feb 07 2021 22:05:02 GMT+0100 (Central European Standard Time)","2021","2","7","22","5","2","hh17","15","male","left","82","12","52","16","2","","","","","fixation","","","",""
"763.5949999676086","img/image_stim_h.png","72","image-keyboard-response","34","156785","0.0-9.0-1.12","0oozdd","Sun Feb 07 2021 22:05:02 GMT+0100 (Central European Standard Time)","2021","2","7","22","5","2","hh17","15","male","left","82","12","52","16","2","","","","","test","happy","happy","h","true"
"null","<div style=""font-size:60px;"">+</div>","null","html-keyboard-response","35","158042","0.0-9.0-0.13","0oozdd","Sun Feb 07 2021 22:05:02 GMT+0100 (Central European Standard Time)","2021","2","7","22","5","2","hh17","15","male","left","82","12","52","16","2","","","","","fixation","","","",""
"1076.4800000470132","img/image_stim_f_stroop.png","70","image-keyboard-response","36","159119","0.0-9.0-1.13","0oozdd","Sun Feb 07 2021 22:05:02 GMT+0100 (Central European Standard Time)","2021","2","7","22","5","2","hh17","15","male","left","82","12","52","16","2","","","","","test","fear","happy","f","true"
"null","<div style=""font-size:60px;"">+</div>","null","html-keyboard-response","37","159621","0.0-9.0-0.14","0oozdd","Sun Feb 07 2021 22:05:02 GMT+0100 (Central European Standard Time)","2021","2","7","22","5","2","hh17","15","male","left","82","12","52","16","2","","","","","fixation","","","",""
"721.5549999964423","img/image_stim_f.png","70","image-keyboard-response","38","160344","0.0-9.0-1.14","0oozdd","Sun Feb 07 2021 22:05:02 GMT+0100 (Central European Standard Time)","2021","2","7","22","5","2","hh17","15","male","left","82","12","52","16","2","","","","","test","fear","fear","f","true"
"null","<div style=""font-size:60px;"">+</div>","null","html-keyboard-response","39","161099","0.0-9.0-0.15","0oozdd","Sun Feb 07 2021 22:05:02 GMT+0100 (Central European Standard Time)","2021","2","7","22","5","2","hh17","15","male","left","82","12","52","16","2","","","","","fixation","","","",""
"588.7799999909475","img/image_stim_h_stroop.png","72","image-keyboard-response","40","161689","0.0-9.0-1.15","0oozdd","Sun Feb 07 2021 22:05:02 GMT+0100 (Central European Standard Time)","2021","2","7","22","5","2","hh17","15","male","left","82","12","52","16","2","","","","","test","happy","fear","h","true"
"null","<div style=""font-size:60px;"">+</div>","null","html-keyboard-response","41","162942","0.0-9.0-0.16","0oozdd","Sun Feb 07 2021 22:05:02 GMT+0100 (Central European Standard Time)","2021","2","7","22","5","2","hh17","15","male","left","82","12","52","16","2","","","","","fixation","","","",""
"318.5550000052899","img/image_stim_h.png","70","image-keyboard-response","42","163262","0.0-9.0-1.16","0oozdd","Sun Feb 07 2021 22:05:02 GMT+0100 (Central European Standard Time)","2021","2","7","22","5","2","hh17","15","male","left","82","12","52","16","2","","","","","test","happy","happy","h","false"
"null","<div style=""font-size:60px;"">+</div>","null","html-keyboard-response","43","164014","0.0-9.0-0.17","0oozdd","Sun Feb 07 2021 22:05:02 GMT+0100 (Central European Standard Time)","2021","2","7","22","5","2","hh17","15","male","left","82","12","52","16","2","","","","","fixation","","","",""
"1127.9900000081398","img/image_stim_f_stroop.png","70","image-keyboard-response","44","165143","0.0-9.0-1.17","0oozdd","Sun Feb 07 2021 22:05:02 GMT+0100 (Central European Standard Time)","2021","2","7","22","5","2","hh17","15","male","left","82","12","52","16","2","","","","","test","fear","happy","f","true"
"null","<div style=""font-size:60px;"">+</div>","null","html-keyboard-response","45","166897","0.0-9.0-0.18","0oozdd","Sun Feb 07 2021 22:05:02 GMT+0100 (Central European Standard Time)","2021","2","7","22","5","2","hh17","15","male","left","82","12","52","16","2","","","","","fixation","","","",""
"744.780000008177","img/image_stim_f.png","70","image-keyboard-response","46","167643","0.0-9.0-1.18","0oozdd","Sun Feb 07 2021 22:05:02 GMT+0100 (Central European Standard Time)","2021","2","7","22","5","2","hh17","15","male","left","82","12","52","16","2","","","","","test","fear","fear","f","true"
"null","<div style=""font-size:60px;"">+</div>","null","html-keyboard-response","47","167896","0.0-9.0-0.19","0oozdd","Sun Feb 07 2021 22:05:02 GMT+0100 (Central European Standard Time)","2021","2","7","22","5","2","hh17","15","male","left","82","12","52","16","2","","","","","fixation","","","",""
"616.9900000095367","img/image_stim_h_stroop.png","72","image-keyboard-response","48","168514","0.0-9.0-1.19","0oozdd","Sun Feb 07 2021 22:05:02 GMT+0100 (Central European Standard Time)","2021","2","7","22","5","2","hh17","15","male","left","82","12","52","16","2","","","","","test","happy","fear","h","true"
"null","<div style=""font-size:60px;"">+</div>","null","html-keyboard-response","49","169017","0.0-9.0-0.20","0oozdd","Sun Feb 07 2021 22:05:02 GMT+0100 (Central European Standard Time)","2021","2","7","22","5","2","hh17","15","male","left","82","12","52","16","2","","","","","fixation","","","",""
"885.9599999850616","img/image_stim_f.png","70","image-keyboard-response","50","169904","0.0-9.0-1.20","0oozdd","Sun Feb 07 2021 22:05:02 GMT+0100 (Central European Standard Time)","2021","2","7","22","5","2","hh17","15","male","left","82","12","52","16","2","","","","","test","fear","fear","f","true"
"null","<div style=""font-size:60px;"">+</div>","null","html-keyboard-response","51","171157","0.0-9.0-0.21","0oozdd","Sun Feb 07 2021 22:05:02 GMT+0100 (Central European Standard Time)","2021","2","7","22","5","2","hh17","15","male","left","82","12","52","16","2","","","","","fixation","","","",""
"870.2550000161864","img/image_stim_h.png","72","image-keyboard-response","52","172029","0.0-9.0-1.21","0oozdd","Sun Feb 07 2021 22:05:02 GMT+0100 (Central European Standard Time)","2021","2","7","22","5","2","hh17","15","male","left","82","12","52","16","2","","","","","test","happy","happy","h","true"
"null","<div style=""font-size:60px;"">+</div>","null","html-keyboard-response","53","174031","0.0-9.0-0.22","0oozdd","Sun Feb 07 2021 22:05:02 GMT+0100 (Central European Standard Time)","2021","2","7","22","5","2","hh17","15","male","left","82","12","52","16","2","","","","","fixation","","","",""
"743.8100000144914","img/image_stim_f_stroop.png","70","image-keyboard-response","54","174776","0.0-9.0-1.22","0oozdd","Sun Feb 07 2021 22:05:02 GMT+0100 (Central European Standard Time)","2021","2","7","22","5","2","hh17","15","male","left","82","12","52","16","2","","","","","test","fear","happy","f","true"
"null","<div style=""font-size:60px;"">+</div>","null","html-keyboard-response","55","175534","0.0-9.0-0.23","0oozdd","Sun Feb 07 2021 22:05:02 GMT+0100 (Central European Standard Time)","2021","2","7","22","5","2","hh17","15","male","left","82","12","52","16","2","","","","","fixation","","","",""
"718.2000000029802","img/image_stim_h_stroop.png","72","image-keyboard-response","56","176253","0.0-9.0-1.23","0oozdd","Sun Feb 07 2021 22:05:02 GMT+0100 (Central European Standard Time)","2021","2","7","22","5","2","hh17","15","male","left","82","12","52","16","2","","","","","test","happy","fear","h","true"
"null","<div style=""font-size:60px;"">+</div>","null","html-keyboard-response","57","177760","0.0-9.0-0.24","0oozdd","Sun Feb 07 2021 22:05:02 GMT+0100 (Central European Standard Time)","2021","2","7","22","5","2","hh17","15","male","left","82","12","52","16","2","","","","","fixation","","","",""
"560.4900000034831","img/image_stim_h_stroop.png","72","image-keyboard-response","58","178322","0.0-9.0-1.24","0oozdd","Sun Feb 07 2021 22:05:02 GMT+0100 (Central European Standard Time)","2021","2","7","22","5","2","hh17","15","male","left","82","12","52","16","2","","","","","test","happy","fear","h","true"
"null","<div style=""font-size:60px;"">+</div>","null","html-keyboard-response","59","179327","0.0-9.0-0.25","0oozdd","Sun Feb 07 2021 22:05:02 GMT+0100 (Central European Standard Time)","2021","2","7","22","5","2","hh17","15","male","left","82","12","52","16","2","","","","","fixation","","","",""
"717.8549999953248","img/image_stim_f_stroop.png","70","image-keyboard-response","60","180046","0.0-9.0-1.25","0oozdd","Sun Feb 07 2021 22:05:02 GMT+0100 (Central European Standard Time)","2021","2","7","22","5","2","hh17","15","male","left","82","12","52","16","2","","","","","test","fear","happy","f","true"
"null","<div style=""font-size:60px;"">+</div>","null","html-keyboard-response","61","181052","0.0-9.0-0.26","0oozdd","Sun Feb 07 2021 22:05:02 GMT+0100 (Central European Standard Time)","2021","2","7","22","5","2","hh17","15","male","left","82","12","52","16","2","","","","","fixation","","","",""
"731.2500000116415","img/image_stim_h.png","72","image-keyboard-response","62","181784","0.0-9.0-1.26","0oozdd","Sun Feb 07 2021 22:05:02 GMT+0100 (Central European Standard Time)","2021","2","7","22","5","2","hh17","15","male","left","82","12","52","16","2","","","","","test","happy","happy","h","true"
"null","<div style=""font-size:60px;"">+</div>","null","html-keyboard-response","63","182289","0.0-9.0-0.27","0oozdd","Sun Feb 07 2021 22:05:02 GMT+0100 (Central European Standard Time)","2021","2","7","22","5","2","hh17","15","male","left","82","12","52","16","2","","","","","fixation","","","",""
"606.8950000335462","img/image_stim_f.png","70","image-keyboard-response","64","182898","0.0-9.0-1.27","0oozdd","Sun Feb 07 2021 22:05:02 GMT+0100 (Central European Standard Time)","2021","2","7","22","5","2","hh17","15","male","left","82","12","52","16","2","","","","","test","fear","fear","f","true"
"null","<div style=""font-size:60px;"">+</div>","null","html-keyboard-response","65","183401","0.0-9.0-0.28","0oozdd","Sun Feb 07 2021 22:05:02 GMT+0100 (Central European Standard Time)","2021","2","7","22","5","2","hh17","15","male","left","82","12","52","16","2","","","","","fixation","","","",""
"481.705000041984","img/image_stim_f_stroop.png","72","image-keyboard-response","66","183884","0.0-9.0-1.28","0oozdd","Sun Feb 07 2021 22:05:02 GMT+0100 (Central European Standard Time)","2021","2","7","22","5","2","hh17","15","male","left","82","12","52","16","2","","","","","test","fear","happy","f","false"
"null","<div style=""font-size:60px;"">+</div>","null","html-keyboard-response","67","185388","0.0-9.0-0.29","0oozdd","Sun Feb 07 2021 22:05:02 GMT+0100 (Central European Standard Time)","2021","2","7","22","5","2","hh17","15","male","left","82","12","52","16","2","","","","","fixation","","","",""
"825.5900000222027","img/image_stim_h.png","72","image-keyboard-response","68","186215","0.0-9.0-1.29","0oozdd","Sun Feb 07 2021 22:05:02 GMT+0100 (Central European Standard Time)","2021","2","7","22","5","2","hh17","15","male","left","82","12","52","16","2","","","","","test","happy","happy","h","true"
"null","<div style=""font-size:60px;"">+</div>","null","html-keyboard-response","69","187228","0.0-9.0-0.30","0oozdd","Sun Feb 07 2021 22:05:02 GMT+0100 (Central European Standard Time)","2021","2","7","22","5","2","hh17","15","male","left","82","12","52","16","2","","","","","fixation","","","",""
"770.2600000193343","img/image_stim_h_stroop.png","72","image-keyboard-response","70","188000","0.0-9.0-1.30","0oozdd","Sun Feb 07 2021 22:05:02 GMT+0100 (Central European Standard Time)","2021","2","7","22","5","2","hh17","15","male","left","82","12","52","16","2","","","","","test","happy","fear","h","true"
"null","<div style=""font-size:60px;"">+</div>","null","html-keyboard-response","71","188755","0.0-9.0-0.31","0oozdd","Sun Feb 07 2021 22:05:02 GMT+0100 (Central European Standard Time)","2021","2","7","22","5","2","hh17","15","male","left","82","12","52","16","2","","","","","fixation","","","",""
"588.5500000440516","img/image_stim_f.png","70","image-keyboard-response","72","189345","0.0-9.0-1.31","0oozdd","Sun Feb 07 2021 22:05:02 GMT+0100 (Central European Standard Time)","2021","2","7","22","5","2","hh17","15","male","left","82","12","52","16","2","","","","","test","fear","fear","f","true"
"null","<div style=""font-size:60px;"">+</div>","null","html-keyboard-response","73","190602","0.0-9.0-0.32","0oozdd","Sun Feb 07 2021 22:05:02 GMT+0100 (Central European Standard Time)","2021","2","7","22","5","2","hh17","15","male","left","82","12","52","16","2","","","","","fixation","","","",""
"622.5350000313483","img/image_stim_h_stroop.png","72","image-keyboard-response","74","191226","0.0-9.0-1.32","0oozdd","Sun Feb 07 2021 22:05:02 GMT+0100 (Central European Standard Time)","2021","2","7","22","5","2","hh17","15","male","left","82","12","52","16","2","","","","","test","happy","fear","h","true"
"null","<div style=""font-size:60px;"">+</div>","null","html-keyboard-response","75","191728","0.0-9.0-0.33","0oozdd","Sun Feb 07 2021 22:05:02 GMT+0100 (Central European Standard Time)","2021","2","7","22","5","2","hh17","15","male","left","82","12","52","16","2","","","","","fixation","","","",""
"691.1600000457838","img/image_stim_f.png","70","image-keyboard-response","76","192421","0.0-9.0-1.33","0oozdd","Sun Feb 07 2021 22:05:02 GMT+0100 (Central European Standard Time)","2021","2","7","22","5","2","hh17","15","male","left","82","12","52","16","2","","","","","test","fear","fear","f","true"
"null","<div style=""font-size:60px;"">+</div>","null","html-keyboard-response","77","193178","0.0-9.0-0.34","0oozdd","Sun Feb 07 2021 22:05:02 GMT+0100 (Central European Standard Time)","2021","2","7","22","5","2","hh17","15","male","left","82","12","52","16","2","","","","","fixation","","","",""
"588.7449999572709","img/image_stim_h.png","72","image-keyboard-response","78","193768","0.0-9.0-1.34","0oozdd","Sun Feb 07 2021 22:05:02 GMT+0100 (Central European Standard Time)","2021","2","7","22","5","2","hh17","15","male","left","82","12","52","16","2","","","","","test","happy","happy","h","true"
"null","<div style=""font-size:60px;"">+</div>","null","html-keyboard-response","79","195272","0.0-9.0-0.35","0oozdd","Sun Feb 07 2021 22:05:02 GMT+0100 (Central European Standard Time)","2021","2","7","22","5","2","hh17","15","male","left","82","12","52","16","2","","","","","fixation","","","",""
"1169.7600000188686","img/image_stim_f_stroop.png","70","image-keyboard-response","80","196443","0.0-9.0-1.35","0oozdd","Sun Feb 07 2021 22:05:02 GMT+0100 (Central European Standard Time)","2021","2","7","22","5","2","hh17","15","male","left","82","12","52","16","2","","","","","test","fear","happy","f","true"
