"rt","stimulus","key_press","trial_type","trial_index","time_elapsed","internal_node_id","exp_id","Time","year","month","date","hour","minute","seconds","id","age","Gender","Handedness","mood","fresh","hunger","H_since_Sleep","H_since_Eat","responses","question_order","slider_start","response","test_part","face","word","correct_response","correct"
"1924.8449999722652","<p>Welcome to this experiment on daily rhythms and cognition.</p><p>First you will be asked some questions about yourself.</p><p>Then a short experiment will measure your response time.</p><p>Take the test at different times of the day/night.</p><p>The test is anonymous, but comparing your data across time is important.</p><p>Therefore, please make up and remember a personal ID (two letters+ two numbers).</p><p>Use this ID whenever taking the test.</p><p><strong>Press any key to begin.</strong></p>","32","html-keyboard-response","0","1927","0.0-0.0","hqz5w4","Tue Feb 09 2021 00:33:15 GMT+0100 (Central European Standard Time)","2021","2","9","0","33","15","mw73","47","male","right","76","21","78","18","3","","","","","","","","",""
"4626.119999971706","","","survey-text","1","6559","0.0-1.0","hqz5w4","Tue Feb 09 2021 00:33:15 GMT+0100 (Central European Standard Time)","2021","2","9","0","33","15","mw73","47","male","right","76","21","78","18","3","{""Q0"":""mw73""}","","","","","","","",""
"3461.589999962598","","","survey-text","2","10023","0.0-2.0","hqz5w4","Tue Feb 09 2021 00:33:15 GMT+0100 (Central European Standard Time)","2021","2","9","0","33","15","mw73","47","male","right","76","21","78","18","3","{""Q0"":""47""}","","","","","","","",""
"4047.759999986738","","","survey-multi-select","3","14073","0.0-3.0","hqz5w4","Tue Feb 09 2021 00:33:15 GMT+0100 (Central European Standard Time)","2021","2","9","0","33","15","mw73","47","male","right","76","21","78","18","3","{""Gender"":[""male""],""Hand"":[""right""]}","[0,1]","","","","","","",""
"4740.519999992102","<p>How Sad/Angry or Happy are you right now?</p>","","html-slider-response","4","18816","0.0-4.0","hqz5w4","Tue Feb 09 2021 00:33:15 GMT+0100 (Central European Standard Time)","2021","2","9","0","33","15","mw73","47","male","right","76","21","78","18","3","","","50","76","","","","",""
"6366.529999999329","<p>How Tired/Sleepy/Distracted or Fresh/Awake/Alert are you right now?</p>","","html-slider-response","5","25183","0.0-5.0","hqz5w4","Tue Feb 09 2021 00:33:15 GMT+0100 (Central European Standard Time)","2021","2","9","0","33","15","mw73","47","male","right","76","21","78","18","3","","","50","21","","","","",""
"4713.040000002366","<p>How Hungry or Satiated are you right now?</p>","","html-slider-response","6","29897","0.0-6.0","hqz5w4","Tue Feb 09 2021 00:33:15 GMT+0100 (Central European Standard Time)","2021","2","9","0","33","15","mw73","47","male","right","76","21","78","18","3","","","50","78","","","","",""
"80075.21999999881","","","survey-multi-select","7","109986","0.0-7.0","hqz5w4","Tue Feb 09 2021 00:33:15 GMT+0100 (Central European Standard Time)","2021","2","9","0","33","15","mw73","47","male","right","76","21","78","18","3","{""Sleep"":[""18""],""Eat"":[""3""]}","[0,1]","","","","","","",""
"5339.924999978393","<p>In this experiment, a face and a word will appear in the center of the screen.</p><p>If the face is <strong>happy</strong>, press the letter <strong>H</strong> with <strong>right</strong> index finger.</p><p>If the face is <strong>fearful</strong>, press the letter <strong>F</strong> with <strong>left</strong> index finger.</p><p><strong>Ignore the written words</strong>. Respond as fast as possible while being correct. </p><div style='width: 900px;'><div style='float: left;'><img src='img/stimuli_stroop_happy.png'></img><p class='small'><strong>Press the H key for happy faces</strong></p></div><div class='float: right;'><img src='img/stimuli_stroop_fear.png'></img><p class='small'><strong>Press the F key for faces with fear</strong></p></div></div><p>If the screen turns blank, press <strong>SPACE</strong></p><p><strong>Press any key to begin.</strong></p>","70","html-keyboard-response","8","115327","0.0-8.0","hqz5w4","Tue Feb 09 2021 00:33:15 GMT+0100 (Central European Standard Time)","2021","2","9","0","33","15","mw73","47","male","right","76","21","78","18","3","","","","","","","","",""
"null","<div style=""font-size:60px;"">+</div>","null","html-keyboard-response","9","117585","0.0-9.0-0.0","hqz5w4","Tue Feb 09 2021 00:33:15 GMT+0100 (Central European Standard Time)","2021","2","9","0","33","15","mw73","47","male","right","76","21","78","18","3","","","","","fixation","","","",""
"703.4550000098534","img/image_stim_h.png","72","image-keyboard-response","10","118290","0.0-9.0-1.0","hqz5w4","Tue Feb 09 2021 00:33:15 GMT+0100 (Central European Standard Time)","2021","2","9","0","33","15","mw73","47","male","right","76","21","78","18","3","","","","","test","happy","happy","h","true"
"null","<div style=""font-size:60px;"">+</div>","null","html-keyboard-response","11","118546","0.0-9.0-0.1","hqz5w4","Tue Feb 09 2021 00:33:15 GMT+0100 (Central European Standard Time)","2021","2","9","0","33","15","mw73","47","male","right","76","21","78","18","3","","","","","fixation","","","",""
"720.9150000126101","img/image_stim_f_stroop.png","70","image-keyboard-response","12","119268","0.0-9.0-1.1","hqz5w4","Tue Feb 09 2021 00:33:15 GMT+0100 (Central European Standard Time)","2021","2","9","0","33","15","mw73","47","male","right","76","21","78","18","3","","","","","test","fear","happy","f","true"
"null","<div style=""font-size:60px;"">+</div>","null","html-keyboard-response","13","120275","0.0-9.0-0.2","hqz5w4","Tue Feb 09 2021 00:33:15 GMT+0100 (Central European Standard Time)","2021","2","9","0","33","15","mw73","47","male","right","76","21","78","18","3","","","","","fixation","","","",""
"678.7400000030175","img/image_stim_f.png","70","image-keyboard-response","14","120955","0.0-9.0-1.2","hqz5w4","Tue Feb 09 2021 00:33:15 GMT+0100 (Central European Standard Time)","2021","2","9","0","33","15","mw73","47","male","right","76","21","78","18","3","","","","","test","fear","fear","f","true"
"null","<div style=""font-size:60px;"">+</div>","null","html-keyboard-response","15","121712","0.0-9.0-0.3","hqz5w4","Tue Feb 09 2021 00:33:15 GMT+0100 (Central European Standard Time)","2021","2","9","0","33","15","mw73","47","male","right","76","21","78","18","3","","","","","fixation","","","",""
"668.3649999904446","img/image_stim_h_stroop.png","72","image-keyboard-response","16","122381","0.0-9.0-1.3","hqz5w4","Tue Feb 09 2021 00:33:15 GMT+0100 (Central European Standard Time)","2021","2","9","0","33","15","mw73","47","male","right","76","21","78","18","3","","","","","test","happy","fear","h","true"
"null","<div style=""font-size:60px;"">+</div>","null","html-keyboard-response","17","122883","0.0-9.0-0.4","hqz5w4","Tue Feb 09 2021 00:33:15 GMT+0100 (Central European Standard Time)","2021","2","9","0","33","15","mw73","47","male","right","76","21","78","18","3","","","","","fixation","","","",""
"615.3749999939464","img/image_stim_f_stroop.png","70","image-keyboard-response","18","123500","0.0-9.0-1.4","hqz5w4","Tue Feb 09 2021 00:33:15 GMT+0100 (Central European Standard Time)","2021","2","9","0","33","15","mw73","47","male","right","76","21","78","18","3","","","","","test","fear","happy","f","true"
"null","<div style=""font-size:60px;"">+</div>","null","html-keyboard-response","19","123752","0.0-9.0-0.5","hqz5w4","Tue Feb 09 2021 00:33:15 GMT+0100 (Central European Standard Time)","2021","2","9","0","33","15","mw73","47","male","right","76","21","78","18","3","","","","","fixation","","","",""
"758.7449999991804","img/image_stim_f.png","70","image-keyboard-response","20","124512","0.0-9.0-1.5","hqz5w4","Tue Feb 09 2021 00:33:15 GMT+0100 (Central European Standard Time)","2021","2","9","0","33","15","mw73","47","male","right","76","21","78","18","3","","","","","test","fear","fear","f","true"
"null","<div style=""font-size:60px;"">+</div>","null","html-keyboard-response","21","126524","0.0-9.0-0.6","hqz5w4","Tue Feb 09 2021 00:33:15 GMT+0100 (Central European Standard Time)","2021","2","9","0","33","15","mw73","47","male","right","76","21","78","18","3","","","","","fixation","","","",""
"566.3100000238046","img/image_stim_h_stroop.png","72","image-keyboard-response","22","127092","0.0-9.0-1.6","hqz5w4","Tue Feb 09 2021 00:33:15 GMT+0100 (Central European Standard Time)","2021","2","9","0","33","15","mw73","47","male","right","76","21","78","18","3","","","","","test","happy","fear","h","true"
"null","<div style=""font-size:60px;"">+</div>","null","html-keyboard-response","23","128606","0.0-9.0-0.7","hqz5w4","Tue Feb 09 2021 00:33:15 GMT+0100 (Central European Standard Time)","2021","2","9","0","33","15","mw73","47","male","right","76","21","78","18","3","","","","","fixation","","","",""
"650.8100000210106","img/image_stim_h.png","72","image-keyboard-response","24","129258","0.0-9.0-1.7","hqz5w4","Tue Feb 09 2021 00:33:15 GMT+0100 (Central European Standard Time)","2021","2","9","0","33","15","mw73","47","male","right","76","21","78","18","3","","","","","test","happy","happy","h","true"
"null","<div style=""font-size:60px;"">+</div>","null","html-keyboard-response","25","129513","0.0-9.0-0.8","hqz5w4","Tue Feb 09 2021 00:33:15 GMT+0100 (Central European Standard Time)","2021","2","9","0","33","15","mw73","47","male","right","76","21","78","18","3","","","","","fixation","","","",""
"776.7749999766238","img/image_stim_h.png","72","image-keyboard-response","26","130291","0.0-9.0-1.8","hqz5w4","Tue Feb 09 2021 00:33:15 GMT+0100 (Central European Standard Time)","2021","2","9","0","33","15","mw73","47","male","right","76","21","78","18","3","","","","","test","happy","happy","h","true"
"null","<div style=""font-size:60px;"">+</div>","null","html-keyboard-response","27","131295","0.0-9.0-0.9","hqz5w4","Tue Feb 09 2021 00:33:15 GMT+0100 (Central European Standard Time)","2021","2","9","0","33","15","mw73","47","male","right","76","21","78","18","3","","","","","fixation","","","",""
"614.2099999706261","img/image_stim_f_stroop.png","70","image-keyboard-response","28","131911","0.0-9.0-1.9","hqz5w4","Tue Feb 09 2021 00:33:15 GMT+0100 (Central European Standard Time)","2021","2","9","0","33","15","mw73","47","male","right","76","21","78","18","3","","","","","test","fear","happy","f","true"
"null","<div style=""font-size:60px;"">+</div>","null","html-keyboard-response","29","133665","0.0-9.0-0.10","hqz5w4","Tue Feb 09 2021 00:33:15 GMT+0100 (Central European Standard Time)","2021","2","9","0","33","15","mw73","47","male","right","76","21","78","18","3","","","","","fixation","","","",""
"654.7150000114925","img/image_stim_h_stroop.png","72","image-keyboard-response","30","134321","0.0-9.0-1.10","hqz5w4","Tue Feb 09 2021 00:33:15 GMT+0100 (Central European Standard Time)","2021","2","9","0","33","15","mw73","47","male","right","76","21","78","18","3","","","","","test","happy","fear","h","true"
"null","<div style=""font-size:60px;"">+</div>","null","html-keyboard-response","31","135827","0.0-9.0-0.11","hqz5w4","Tue Feb 09 2021 00:33:15 GMT+0100 (Central European Standard Time)","2021","2","9","0","33","15","mw73","47","male","right","76","21","78","18","3","","","","","fixation","","","",""
"596.7200000304729","img/image_stim_f.png","70","image-keyboard-response","32","136425","0.0-9.0-1.11","hqz5w4","Tue Feb 09 2021 00:33:15 GMT+0100 (Central European Standard Time)","2021","2","9","0","33","15","mw73","47","male","right","76","21","78","18","3","","","","","test","fear","fear","f","true"
"null","<div style=""font-size:60px;"">+</div>","null","html-keyboard-response","33","137928","0.0-9.0-0.12","hqz5w4","Tue Feb 09 2021 00:33:15 GMT+0100 (Central European Standard Time)","2021","2","9","0","33","15","mw73","47","male","right","76","21","78","18","3","","","","","fixation","","","",""
"723.6899999552406","img/image_stim_h.png","72","image-keyboard-response","34","138653","0.0-9.0-1.12","hqz5w4","Tue Feb 09 2021 00:33:15 GMT+0100 (Central European Standard Time)","2021","2","9","0","33","15","mw73","47","male","right","76","21","78","18","3","","","","","test","happy","happy","h","true"
"null","<div style=""font-size:60px;"">+</div>","null","html-keyboard-response","35","139408","0.0-9.0-0.13","hqz5w4","Tue Feb 09 2021 00:33:15 GMT+0100 (Central European Standard Time)","2021","2","9","0","33","15","mw73","47","male","right","76","21","78","18","3","","","","","fixation","","","",""
"661.8049999815412","img/image_stim_f.png","70","image-keyboard-response","36","140071","0.0-9.0-1.13","hqz5w4","Tue Feb 09 2021 00:33:15 GMT+0100 (Central European Standard Time)","2021","2","9","0","33","15","mw73","47","male","right","76","21","78","18","3","","","","","test","fear","fear","f","true"
"null","<div style=""font-size:60px;"">+</div>","null","html-keyboard-response","37","141075","0.0-9.0-0.14","hqz5w4","Tue Feb 09 2021 00:33:15 GMT+0100 (Central European Standard Time)","2021","2","9","0","33","15","mw73","47","male","right","76","21","78","18","3","","","","","fixation","","","",""
"686.6300000110641","img/image_stim_f_stroop.png","70","image-keyboard-response","38","141763","0.0-9.0-1.14","hqz5w4","Tue Feb 09 2021 00:33:15 GMT+0100 (Central European Standard Time)","2021","2","9","0","33","15","mw73","47","male","right","76","21","78","18","3","","","","","test","fear","happy","f","true"
"null","<div style=""font-size:60px;"">+</div>","null","html-keyboard-response","39","143267","0.0-9.0-0.15","hqz5w4","Tue Feb 09 2021 00:33:15 GMT+0100 (Central European Standard Time)","2021","2","9","0","33","15","mw73","47","male","right","76","21","78","18","3","","","","","fixation","","","",""
"550.0849999953061","img/image_stim_h_stroop.png","72","image-keyboard-response","40","143818","0.0-9.0-1.15","hqz5w4","Tue Feb 09 2021 00:33:15 GMT+0100 (Central European Standard Time)","2021","2","9","0","33","15","mw73","47","male","right","76","21","78","18","3","","","","","test","happy","fear","h","true"
"null","<div style=""font-size:60px;"">+</div>","null","html-keyboard-response","41","145320","0.0-9.0-0.16","hqz5w4","Tue Feb 09 2021 00:33:15 GMT+0100 (Central European Standard Time)","2021","2","9","0","33","15","mw73","47","male","right","76","21","78","18","3","","","","","fixation","","","",""
"572.4350000382401","img/image_stim_h.png","70","image-keyboard-response","42","145894","0.0-9.0-1.16","hqz5w4","Tue Feb 09 2021 00:33:15 GMT+0100 (Central European Standard Time)","2021","2","9","0","33","15","mw73","47","male","right","76","21","78","18","3","","","","","test","happy","happy","h","false"
"null","<div style=""font-size:60px;"">+</div>","null","html-keyboard-response","43","147398","0.0-9.0-0.17","hqz5w4","Tue Feb 09 2021 00:33:15 GMT+0100 (Central European Standard Time)","2021","2","9","0","33","15","mw73","47","male","right","76","21","78","18","3","","","","","fixation","","","",""
"633.3599999779835","img/image_stim_h_stroop.png","72","image-keyboard-response","44","148033","0.0-9.0-1.17","hqz5w4","Tue Feb 09 2021 00:33:15 GMT+0100 (Central European Standard Time)","2021","2","9","0","33","15","mw73","47","male","right","76","21","78","18","3","","","","","test","happy","fear","h","true"
"null","<div style=""font-size:60px;"">+</div>","null","html-keyboard-response","45","148289","0.0-9.0-0.18","hqz5w4","Tue Feb 09 2021 00:33:15 GMT+0100 (Central European Standard Time)","2021","2","9","0","33","15","mw73","47","male","right","76","21","78","18","3","","","","","fixation","","","",""
"1039.2100000171922","img/image_stim_f_stroop.png","70","image-keyboard-response","46","149329","0.0-9.0-1.18","hqz5w4","Tue Feb 09 2021 00:33:15 GMT+0100 (Central European Standard Time)","2021","2","9","0","33","15","mw73","47","male","right","76","21","78","18","3","","","","","test","fear","happy","f","true"
"null","<div style=""font-size:60px;"">+</div>","null","html-keyboard-response","47","149583","0.0-9.0-0.19","hqz5w4","Tue Feb 09 2021 00:33:15 GMT+0100 (Central European Standard Time)","2021","2","9","0","33","15","mw73","47","male","right","76","21","78","18","3","","","","","fixation","","","",""
"1096.2500000023283","img/image_stim_f.png","70","image-keyboard-response","48","150681","0.0-9.0-1.19","hqz5w4","Tue Feb 09 2021 00:33:15 GMT+0100 (Central European Standard Time)","2021","2","9","0","33","15","mw73","47","male","right","76","21","78","18","3","","","","","test","fear","fear","f","true"
"null","<div style=""font-size:60px;"">+</div>","null","html-keyboard-response","49","152184","0.0-9.0-0.20","hqz5w4","Tue Feb 09 2021 00:33:15 GMT+0100 (Central European Standard Time)","2021","2","9","0","33","15","mw73","47","male","right","76","21","78","18","3","","","","","fixation","","","",""
"662.3499999986961","img/image_stim_h_stroop.png","72","image-keyboard-response","50","152848","0.0-9.0-1.20","hqz5w4","Tue Feb 09 2021 00:33:15 GMT+0100 (Central European Standard Time)","2021","2","9","0","33","15","mw73","47","male","right","76","21","78","18","3","","","","","test","happy","fear","h","true"
"null","<div style=""font-size:60px;"">+</div>","null","html-keyboard-response","51","154104","0.0-9.0-0.21","hqz5w4","Tue Feb 09 2021 00:33:15 GMT+0100 (Central European Standard Time)","2021","2","9","0","33","15","mw73","47","male","right","76","21","78","18","3","","","","","fixation","","","",""
"775.7850000052713","img/image_stim_f_stroop.png","70","image-keyboard-response","52","154881","0.0-9.0-1.21","hqz5w4","Tue Feb 09 2021 00:33:15 GMT+0100 (Central European Standard Time)","2021","2","9","0","33","15","mw73","47","male","right","76","21","78","18","3","","","","","test","fear","happy","f","true"
"null","<div style=""font-size:60px;"">+</div>","null","html-keyboard-response","53","155386","0.0-9.0-0.22","hqz5w4","Tue Feb 09 2021 00:33:15 GMT+0100 (Central European Standard Time)","2021","2","9","0","33","15","mw73","47","male","right","76","21","78","18","3","","","","","fixation","","","",""
"949.9899999937043","img/image_stim_f.png","70","image-keyboard-response","54","156337","0.0-9.0-1.22","hqz5w4","Tue Feb 09 2021 00:33:15 GMT+0100 (Central European Standard Time)","2021","2","9","0","33","15","mw73","47","male","right","76","21","78","18","3","","","","","test","fear","fear","f","true"
"null","<div style=""font-size:60px;"">+</div>","null","html-keyboard-response","55","158093","0.0-9.0-0.23","hqz5w4","Tue Feb 09 2021 00:33:15 GMT+0100 (Central European Standard Time)","2021","2","9","0","33","15","mw73","47","male","right","76","21","78","18","3","","","","","fixation","","","",""
"604.334999981802","img/image_stim_h.png","72","image-keyboard-response","56","158699","0.0-9.0-1.23","hqz5w4","Tue Feb 09 2021 00:33:15 GMT+0100 (Central European Standard Time)","2021","2","9","0","33","15","mw73","47","male","right","76","21","78","18","3","","","","","test","happy","happy","h","true"
"null","<div style=""font-size:60px;"">+</div>","null","html-keyboard-response","57","160706","0.0-9.0-0.24","hqz5w4","Tue Feb 09 2021 00:33:15 GMT+0100 (Central European Standard Time)","2021","2","9","0","33","15","mw73","47","male","right","76","21","78","18","3","","","","","fixation","","","",""
"635.7800000114366","img/image_stim_f.png","70","image-keyboard-response","58","161343","0.0-9.0-1.24","hqz5w4","Tue Feb 09 2021 00:33:15 GMT+0100 (Central European Standard Time)","2021","2","9","0","33","15","mw73","47","male","right","76","21","78","18","3","","","","","test","fear","fear","f","true"
"null","<div style=""font-size:60px;"">+</div>","null","html-keyboard-response","59","162851","0.0-9.0-0.25","hqz5w4","Tue Feb 09 2021 00:33:15 GMT+0100 (Central European Standard Time)","2021","2","9","0","33","15","mw73","47","male","right","76","21","78","18","3","","","","","fixation","","","",""
"673.9749999833293","img/image_stim_h.png","72","image-keyboard-response","60","163526","0.0-9.0-1.25","hqz5w4","Tue Feb 09 2021 00:33:15 GMT+0100 (Central European Standard Time)","2021","2","9","0","33","15","mw73","47","male","right","76","21","78","18","3","","","","","test","happy","happy","h","true"
"null","<div style=""font-size:60px;"">+</div>","null","html-keyboard-response","61","165532","0.0-9.0-0.26","hqz5w4","Tue Feb 09 2021 00:33:15 GMT+0100 (Central European Standard Time)","2021","2","9","0","33","15","mw73","47","male","right","76","21","78","18","3","","","","","fixation","","","",""
"667.0400000293739","img/image_stim_h_stroop.png","72","image-keyboard-response","62","166201","0.0-9.0-1.26","hqz5w4","Tue Feb 09 2021 00:33:15 GMT+0100 (Central European Standard Time)","2021","2","9","0","33","15","mw73","47","male","right","76","21","78","18","3","","","","","test","happy","fear","h","true"
"null","<div style=""font-size:60px;"">+</div>","null","html-keyboard-response","63","166455","0.0-9.0-0.27","hqz5w4","Tue Feb 09 2021 00:33:15 GMT+0100 (Central European Standard Time)","2021","2","9","0","33","15","mw73","47","male","right","76","21","78","18","3","","","","","fixation","","","",""
"623.4600000316277","img/image_stim_f_stroop.png","70","image-keyboard-response","64","167079","0.0-9.0-1.27","hqz5w4","Tue Feb 09 2021 00:33:15 GMT+0100 (Central European Standard Time)","2021","2","9","0","33","15","mw73","47","male","right","76","21","78","18","3","","","","","test","fear","happy","f","true"
"null","<div style=""font-size:60px;"">+</div>","null","html-keyboard-response","65","168832","0.0-9.0-0.28","hqz5w4","Tue Feb 09 2021 00:33:15 GMT+0100 (Central European Standard Time)","2021","2","9","0","33","15","mw73","47","male","right","76","21","78","18","3","","","","","fixation","","","",""
"576.0700000100769","img/image_stim_h_stroop.png","72","image-keyboard-response","66","169410","0.0-9.0-1.28","hqz5w4","Tue Feb 09 2021 00:33:15 GMT+0100 (Central European Standard Time)","2021","2","9","0","33","15","mw73","47","male","right","76","21","78","18","3","","","","","test","happy","fear","h","true"
"null","<div style=""font-size:60px;"">+</div>","null","html-keyboard-response","67","171414","0.0-9.0-0.29","hqz5w4","Tue Feb 09 2021 00:33:15 GMT+0100 (Central European Standard Time)","2021","2","9","0","33","15","mw73","47","male","right","76","21","78","18","3","","","","","fixation","","","",""
"646.2049999972805","img/image_stim_f_stroop.png","70","image-keyboard-response","68","172067","0.0-9.0-1.29","hqz5w4","Tue Feb 09 2021 00:33:15 GMT+0100 (Central European Standard Time)","2021","2","9","0","33","15","mw73","47","male","right","76","21","78","18","3","","","","","test","fear","happy","f","true"
"null","<div style=""font-size:60px;"">+</div>","null","html-keyboard-response","69","174073","0.0-9.0-0.30","hqz5w4","Tue Feb 09 2021 00:33:15 GMT+0100 (Central European Standard Time)","2021","2","9","0","33","15","mw73","47","male","right","76","21","78","18","3","","","","","fixation","","","",""
"527.9749999754131","img/image_stim_f.png","72","image-keyboard-response","70","174602","0.0-9.0-1.30","hqz5w4","Tue Feb 09 2021 00:33:15 GMT+0100 (Central European Standard Time)","2021","2","9","0","33","15","mw73","47","male","right","76","21","78","18","3","","","","","test","fear","fear","f","false"
"null","<div style=""font-size:60px;"">+</div>","null","html-keyboard-response","71","175607","0.0-9.0-0.31","hqz5w4","Tue Feb 09 2021 00:33:15 GMT+0100 (Central European Standard Time)","2021","2","9","0","33","15","mw73","47","male","right","76","21","78","18","3","","","","","fixation","","","",""
"616.4649999700487","img/image_stim_h.png","72","image-keyboard-response","72","176225","0.0-9.0-1.31","hqz5w4","Tue Feb 09 2021 00:33:15 GMT+0100 (Central European Standard Time)","2021","2","9","0","33","15","mw73","47","male","right","76","21","78","18","3","","","","","test","happy","happy","h","true"
"null","<div style=""font-size:60px;"">+</div>","null","html-keyboard-response","73","177728","0.0-9.0-0.32","hqz5w4","Tue Feb 09 2021 00:33:15 GMT+0100 (Central European Standard Time)","2021","2","9","0","33","15","mw73","47","male","right","76","21","78","18","3","","","","","fixation","","","",""
"678.5999999847263","img/image_stim_f.png","70","image-keyboard-response","74","178408","0.0-9.0-1.32","hqz5w4","Tue Feb 09 2021 00:33:15 GMT+0100 (Central European Standard Time)","2021","2","9","0","33","15","mw73","47","male","right","76","21","78","18","3","","","","","test","fear","fear","f","true"
"null","<div style=""font-size:60px;"">+</div>","null","html-keyboard-response","75","180413","0.0-9.0-0.33","hqz5w4","Tue Feb 09 2021 00:33:15 GMT+0100 (Central European Standard Time)","2021","2","9","0","33","15","mw73","47","male","right","76","21","78","18","3","","","","","fixation","","","",""
"716.5749999694526","img/image_stim_f_stroop.png","70","image-keyboard-response","76","181130","0.0-9.0-1.33","hqz5w4","Tue Feb 09 2021 00:33:15 GMT+0100 (Central European Standard Time)","2021","2","9","0","33","15","mw73","47","male","right","76","21","78","18","3","","","","","test","fear","happy","f","true"
"null","<div style=""font-size:60px;"">+</div>","null","html-keyboard-response","77","182889","0.0-9.0-0.34","hqz5w4","Tue Feb 09 2021 00:33:15 GMT+0100 (Central European Standard Time)","2021","2","9","0","33","15","mw73","47","male","right","76","21","78","18","3","","","","","fixation","","","",""
"684.4900000141934","img/image_stim_h_stroop.png","72","image-keyboard-response","78","183574","0.0-9.0-1.34","hqz5w4","Tue Feb 09 2021 00:33:15 GMT+0100 (Central European Standard Time)","2021","2","9","0","33","15","mw73","47","male","right","76","21","78","18","3","","","","","test","happy","fear","h","true"
"null","<div style=""font-size:60px;"">+</div>","null","html-keyboard-response","79","184827","0.0-9.0-0.35","hqz5w4","Tue Feb 09 2021 00:33:15 GMT+0100 (Central European Standard Time)","2021","2","9","0","33","15","mw73","47","male","right","76","21","78","18","3","","","","","fixation","","","",""
"592.6650000037625","img/image_stim_h.png","72","image-keyboard-response","80","185421","0.0-9.0-1.35","hqz5w4","Tue Feb 09 2021 00:33:15 GMT+0100 (Central European Standard Time)","2021","2","9","0","33","15","mw73","47","male","right","76","21","78","18","3","","","","","test","happy","happy","h","true"
