"rt","stimulus","key_press","trial_type","trial_index","time_elapsed","internal_node_id","exp_id","Time","year","month","date","hour","minute","seconds","id","age","Gender","Handedness","mood","fresh","hunger","H_since_Sleep","H_since_Eat","responses","question_order","slider_start","response","test_part","face","word","correct_response","correct"
"1184.7950000010314","<p>Welcome to this experiment on daily rhythms and cognition.</p><p>First you will be asked some questions about yourself.</p><p>Then a short experiment will measure your response time.</p><p>Take the test at different times of the day/night.</p><p>The test is anonymous, but comparing your data across time is important.</p><p>Therefore, please make up and remember a personal ID (two letters+ two numbers).</p><p>Use this ID whenever taking the test.</p><p><strong>Press any key to begin.</strong></p>","32","html-keyboard-response","0","1189","0.0-0.0","g7stef","Mon Feb 15 2021 12:24:55 GMT+0100 (Central European Standard Time)","2021","2","15","12","24","55","um12","19 ","female","right","36","5","31","5","5","","","","","","","","",""
"5809.13000000146","","","survey-text","1","7010","0.0-1.0","g7stef","Mon Feb 15 2021 12:24:55 GMT+0100 (Central European Standard Time)","2021","2","15","12","24","55","um12","19 ","female","right","36","5","31","5","5","{""Q0"":""um12""}","","","","","","","",""
"2987.9999999975553","","","survey-text","2","10006","0.0-2.0","g7stef","Mon Feb 15 2021 12:24:55 GMT+0100 (Central European Standard Time)","2021","2","15","12","24","55","um12","19 ","female","right","36","5","31","5","5","{""Q0"":""19 ""}","","","","","","","",""
"4053.825000002689","","","survey-multi-select","3","14067","0.0-3.0","g7stef","Mon Feb 15 2021 12:24:55 GMT+0100 (Central European Standard Time)","2021","2","15","12","24","55","um12","19 ","female","right","36","5","31","5","5","{""Gender"":[""female""],""Hand"":[""right""]}","[0,1]","","","","","","",""
"4951.434999995399","<p>How Sad/Angry or Happy are you right now?</p>","","html-slider-response","4","19031","0.0-4.0","g7stef","Mon Feb 15 2021 12:24:55 GMT+0100 (Central European Standard Time)","2021","2","15","12","24","55","um12","19 ","female","right","36","5","31","5","5","","","50","36","","","","",""
"3175.694999998086","<p>How Tired/Sleepy/Distracted or Fresh/Awake/Alert are you right now?</p>","","html-slider-response","5","22209","0.0-5.0","g7stef","Mon Feb 15 2021 12:24:55 GMT+0100 (Central European Standard Time)","2021","2","15","12","24","55","um12","19 ","female","right","36","5","31","5","5","","","50","5","","","","",""
"3716.4150000025984","<p>How Hungry or Satiated are you right now?</p>","","html-slider-response","6","25928","0.0-6.0","g7stef","Mon Feb 15 2021 12:24:55 GMT+0100 (Central European Standard Time)","2021","2","15","12","24","55","um12","19 ","female","right","36","5","31","5","5","","","50","31","","","","",""
"26373.674999995274","","","survey-multi-select","7","52338","0.0-7.0","g7stef","Mon Feb 15 2021 12:24:55 GMT+0100 (Central European Standard Time)","2021","2","15","12","24","55","um12","19 ","female","right","36","5","31","5","5","{""Sleep"":[""5""],""Eat"":[""5""]}","[0,1]","","","","","","",""
"6923.965000001772","<p>In this experiment, a face and a word will appear in the center of the screen.</p><p>If the face is <strong>happy</strong>, press the letter <strong>H</strong> with <strong>right</strong> index finger.</p><p>If the face is <strong>fearful</strong>, press the letter <strong>F</strong> with <strong>left</strong> index finger.</p><p><strong>Ignore the written words</strong>. Respond as fast as possible while being correct. </p><div style='width: 900px;'><div style='float: left;'><img src='img/stimuli_stroop_happy.png'></img><p class='small'><strong>Press the H key for happy faces</strong></p></div><div class='float: right;'><img src='img/stimuli_stroop_fear.png'></img><p class='small'><strong>Press the F key for faces with fear</strong></p></div></div><p>If the screen turns blank, press <strong>SPACE</strong></p><p><strong>Press any key to begin.</strong></p>","32","html-keyboard-response","8","59272","0.0-8.0","g7stef","Mon Feb 15 2021 12:24:55 GMT+0100 (Central European Standard Time)","2021","2","15","12","24","55","um12","19 ","female","right","36","5","31","5","5","","","","","","","","",""
"null","<div style=""font-size:60px;"">+</div>","null","html-keyboard-response","9","62285","0.0-9.0-0.0","g7stef","Mon Feb 15 2021 12:24:55 GMT+0100 (Central European Standard Time)","2021","2","15","12","24","55","um12","19 ","female","right","36","5","31","5","5","","","","","fixation","","","",""
"1249.6899999969173","img/image_stim_f.png","70","image-keyboard-response","10","63549","0.0-9.0-1.0","g7stef","Mon Feb 15 2021 12:24:55 GMT+0100 (Central European Standard Time)","2021","2","15","12","24","55","um12","19 ","female","right","36","5","31","5","5","","","","","test","fear","fear","f","true"
"null","<div style=""font-size:60px;"">+</div>","null","html-keyboard-response","11","63808","0.0-9.0-0.1","g7stef","Mon Feb 15 2021 12:24:55 GMT+0100 (Central European Standard Time)","2021","2","15","12","24","55","um12","19 ","female","right","36","5","31","5","5","","","","","fixation","","","",""
"1401.334999995015","img/image_stim_h.png","72","image-keyboard-response","12","65212","0.0-9.0-1.1","g7stef","Mon Feb 15 2021 12:24:55 GMT+0100 (Central European Standard Time)","2021","2","15","12","24","55","um12","19 ","female","right","36","5","31","5","5","","","","","test","happy","happy","h","true"
"null","<div style=""font-size:60px;"">+</div>","null","html-keyboard-response","13","65717","0.0-9.0-0.2","g7stef","Mon Feb 15 2021 12:24:55 GMT+0100 (Central European Standard Time)","2021","2","15","12","24","55","um12","19 ","female","right","36","5","31","5","5","","","","","fixation","","","",""
"1551.9449999992503","img/image_stim_h_stroop.png","72","image-keyboard-response","14","67271","0.0-9.0-1.2","g7stef","Mon Feb 15 2021 12:24:55 GMT+0100 (Central European Standard Time)","2021","2","15","12","24","55","um12","19 ","female","right","36","5","31","5","5","","","","","test","happy","fear","h","true"
"null","<div style=""font-size:60px;"">+</div>","null","html-keyboard-response","15","68529","0.0-9.0-0.3","g7stef","Mon Feb 15 2021 12:24:55 GMT+0100 (Central European Standard Time)","2021","2","15","12","24","55","um12","19 ","female","right","36","5","31","5","5","","","","","fixation","","","",""
"846.9550000008894","img/image_stim_f_stroop.png","70","image-keyboard-response","16","69379","0.0-9.0-1.3","g7stef","Mon Feb 15 2021 12:24:55 GMT+0100 (Central European Standard Time)","2021","2","15","12","24","55","um12","19 ","female","right","36","5","31","5","5","","","","","test","fear","happy","f","true"
"null","<div style=""font-size:60px;"">+</div>","null","html-keyboard-response","17","71138","0.0-9.0-0.4","g7stef","Mon Feb 15 2021 12:24:55 GMT+0100 (Central European Standard Time)","2021","2","15","12","24","55","um12","19 ","female","right","36","5","31","5","5","","","","","fixation","","","",""
"446.3400000022375","img/image_stim_h.png","72","image-keyboard-response","18","71586","0.0-9.0-1.4","g7stef","Mon Feb 15 2021 12:24:55 GMT+0100 (Central European Standard Time)","2021","2","15","12","24","55","um12","19 ","female","right","36","5","31","5","5","","","","","test","happy","happy","h","true"
"null","<div style=""font-size:60px;"">+</div>","null","html-keyboard-response","19","73093","0.0-9.0-0.5","g7stef","Mon Feb 15 2021 12:24:55 GMT+0100 (Central European Standard Time)","2021","2","15","12","24","55","um12","19 ","female","right","36","5","31","5","5","","","","","fixation","","","",""
"569.3449999962468","img/image_stim_f.png","70","image-keyboard-response","20","73664","0.0-9.0-1.5","g7stef","Mon Feb 15 2021 12:24:55 GMT+0100 (Central European Standard Time)","2021","2","15","12","24","55","um12","19 ","female","right","36","5","31","5","5","","","","","test","fear","fear","f","true"
"null","<div style=""font-size:60px;"">+</div>","null","html-keyboard-response","21","73918","0.0-9.0-0.6","g7stef","Mon Feb 15 2021 12:24:55 GMT+0100 (Central European Standard Time)","2021","2","15","12","24","55","um12","19 ","female","right","36","5","31","5","5","","","","","fixation","","","",""
"682.345000001078","img/image_stim_h_stroop.png","72","image-keyboard-response","22","74602","0.0-9.0-1.6","g7stef","Mon Feb 15 2021 12:24:55 GMT+0100 (Central European Standard Time)","2021","2","15","12","24","55","um12","19 ","female","right","36","5","31","5","5","","","","","test","happy","fear","h","true"
"null","<div style=""font-size:60px;"">+</div>","null","html-keyboard-response","23","74863","0.0-9.0-0.7","g7stef","Mon Feb 15 2021 12:24:55 GMT+0100 (Central European Standard Time)","2021","2","15","12","24","55","um12","19 ","female","right","36","5","31","5","5","","","","","fixation","","","",""
"563.5699999984354","img/image_stim_f_stroop.png","70","image-keyboard-response","24","75429","0.0-9.0-1.7","g7stef","Mon Feb 15 2021 12:24:55 GMT+0100 (Central European Standard Time)","2021","2","15","12","24","55","um12","19 ","female","right","36","5","31","5","5","","","","","test","fear","happy","f","true"
"null","<div style=""font-size:60px;"">+</div>","null","html-keyboard-response","25","77182","0.0-9.0-0.8","g7stef","Mon Feb 15 2021 12:24:55 GMT+0100 (Central European Standard Time)","2021","2","15","12","24","55","um12","19 ","female","right","36","5","31","5","5","","","","","fixation","","","",""
"566.2850000007893","img/image_stim_h_stroop.png","72","image-keyboard-response","26","77750","0.0-9.0-1.8","g7stef","Mon Feb 15 2021 12:24:55 GMT+0100 (Central European Standard Time)","2021","2","15","12","24","55","um12","19 ","female","right","36","5","31","5","5","","","","","test","happy","fear","h","true"
"null","<div style=""font-size:60px;"">+</div>","null","html-keyboard-response","27","79258","0.0-9.0-0.9","g7stef","Mon Feb 15 2021 12:24:55 GMT+0100 (Central European Standard Time)","2021","2","15","12","24","55","um12","19 ","female","right","36","5","31","5","5","","","","","fixation","","","",""
"508.20499999827007","img/image_stim_f.png","70","image-keyboard-response","28","79768","0.0-9.0-1.9","g7stef","Mon Feb 15 2021 12:24:55 GMT+0100 (Central European Standard Time)","2021","2","15","12","24","55","um12","19 ","female","right","36","5","31","5","5","","","","","test","fear","fear","f","true"
"null","<div style=""font-size:60px;"">+</div>","null","html-keyboard-response","29","81024","0.0-9.0-0.10","g7stef","Mon Feb 15 2021 12:24:55 GMT+0100 (Central European Standard Time)","2021","2","15","12","24","55","um12","19 ","female","right","36","5","31","5","5","","","","","fixation","","","",""
"439.0200000052573","img/image_stim_f_stroop.png","72","image-keyboard-response","30","81465","0.0-9.0-1.10","g7stef","Mon Feb 15 2021 12:24:55 GMT+0100 (Central European Standard Time)","2021","2","15","12","24","55","um12","19 ","female","right","36","5","31","5","5","","","","","test","fear","happy","f","false"
"null","<div style=""font-size:60px;"">+</div>","null","html-keyboard-response","31","81969","0.0-9.0-0.11","g7stef","Mon Feb 15 2021 12:24:55 GMT+0100 (Central European Standard Time)","2021","2","15","12","24","55","um12","19 ","female","right","36","5","31","5","5","","","","","fixation","","","",""
"1313.190000000759","img/image_stim_h.png","72","image-keyboard-response","32","83284","0.0-9.0-1.11","g7stef","Mon Feb 15 2021 12:24:55 GMT+0100 (Central European Standard Time)","2021","2","15","12","24","55","um12","19 ","female","right","36","5","31","5","5","","","","","test","happy","happy","h","true"
"null","<div style=""font-size:60px;"">+</div>","null","html-keyboard-response","33","84538","0.0-9.0-0.12","g7stef","Mon Feb 15 2021 12:24:55 GMT+0100 (Central European Standard Time)","2021","2","15","12","24","55","um12","19 ","female","right","36","5","31","5","5","","","","","fixation","","","",""
"573.6250000045402","img/image_stim_h.png","72","image-keyboard-response","34","85113","0.0-9.0-1.12","g7stef","Mon Feb 15 2021 12:24:55 GMT+0100 (Central European Standard Time)","2021","2","15","12","24","55","um12","19 ","female","right","36","5","31","5","5","","","","","test","happy","happy","h","true"
"null","<div style=""font-size:60px;"">+</div>","null","html-keyboard-response","35","85371","0.0-9.0-0.13","g7stef","Mon Feb 15 2021 12:24:55 GMT+0100 (Central European Standard Time)","2021","2","15","12","24","55","um12","19 ","female","right","36","5","31","5","5","","","","","fixation","","","",""
"1233.7850000039907","img/image_stim_f.png","70","image-keyboard-response","36","86607","0.0-9.0-1.13","g7stef","Mon Feb 15 2021 12:24:55 GMT+0100 (Central European Standard Time)","2021","2","15","12","24","55","um12","19 ","female","right","36","5","31","5","5","","","","","test","fear","fear","f","true"
"null","<div style=""font-size:60px;"">+</div>","null","html-keyboard-response","37","88113","0.0-9.0-0.14","g7stef","Mon Feb 15 2021 12:24:55 GMT+0100 (Central European Standard Time)","2021","2","15","12","24","55","um12","19 ","female","right","36","5","31","5","5","","","","","fixation","","","",""
"768.0550000004587","img/image_stim_h_stroop.png","72","image-keyboard-response","38","88883","0.0-9.0-1.14","g7stef","Mon Feb 15 2021 12:24:55 GMT+0100 (Central European Standard Time)","2021","2","15","12","24","55","um12","19 ","female","right","36","5","31","5","5","","","","","test","happy","fear","h","true"
"null","<div style=""font-size:60px;"">+</div>","null","html-keyboard-response","39","89893","0.0-9.0-0.15","g7stef","Mon Feb 15 2021 12:24:55 GMT+0100 (Central European Standard Time)","2021","2","15","12","24","55","um12","19 ","female","right","36","5","31","5","5","","","","","fixation","","","",""
"1072.329999995418","img/image_stim_f_stroop.png","70","image-keyboard-response","40","90967","0.0-9.0-1.15","g7stef","Mon Feb 15 2021 12:24:55 GMT+0100 (Central European Standard Time)","2021","2","15","12","24","55","um12","19 ","female","right","36","5","31","5","5","","","","","test","fear","happy","f","true"
"null","<div style=""font-size:60px;"">+</div>","null","html-keyboard-response","41","91471","0.0-9.0-0.16","g7stef","Mon Feb 15 2021 12:24:55 GMT+0100 (Central European Standard Time)","2021","2","15","12","24","55","um12","19 ","female","right","36","5","31","5","5","","","","","fixation","","","",""
"554.0150000015274","img/image_stim_f_stroop.png","70","image-keyboard-response","42","92027","0.0-9.0-1.16","g7stef","Mon Feb 15 2021 12:24:55 GMT+0100 (Central European Standard Time)","2021","2","15","12","24","55","um12","19 ","female","right","36","5","31","5","5","","","","","test","fear","happy","f","true"
"null","<div style=""font-size:60px;"">+</div>","null","html-keyboard-response","43","92282","0.0-9.0-0.17","g7stef","Mon Feb 15 2021 12:24:55 GMT+0100 (Central European Standard Time)","2021","2","15","12","24","55","um12","19 ","female","right","36","5","31","5","5","","","","","fixation","","","",""
"536.3799999977346","img/image_stim_f.png","70","image-keyboard-response","44","92820","0.0-9.0-1.17","g7stef","Mon Feb 15 2021 12:24:55 GMT+0100 (Central European Standard Time)","2021","2","15","12","24","55","um12","19 ","female","right","36","5","31","5","5","","","","","test","fear","fear","f","true"
"null","<div style=""font-size:60px;"">+</div>","null","html-keyboard-response","45","93089","0.0-9.0-0.18","g7stef","Mon Feb 15 2021 12:24:55 GMT+0100 (Central European Standard Time)","2021","2","15","12","24","55","um12","19 ","female","right","36","5","31","5","5","","","","","fixation","","","",""
"456.2500000029104","img/image_stim_h.png","72","image-keyboard-response","46","93547","0.0-9.0-1.18","g7stef","Mon Feb 15 2021 12:24:55 GMT+0100 (Central European Standard Time)","2021","2","15","12","24","55","um12","19 ","female","right","36","5","31","5","5","","","","","test","happy","happy","h","true"
"null","<div style=""font-size:60px;"">+</div>","null","html-keyboard-response","47","95554","0.0-9.0-0.19","g7stef","Mon Feb 15 2021 12:24:55 GMT+0100 (Central European Standard Time)","2021","2","15","12","24","55","um12","19 ","female","right","36","5","31","5","5","","","","","fixation","","","",""
"554.7349999978906","img/image_stim_h_stroop.png","72","image-keyboard-response","48","96110","0.0-9.0-1.19","g7stef","Mon Feb 15 2021 12:24:55 GMT+0100 (Central European Standard Time)","2021","2","15","12","24","55","um12","19 ","female","right","36","5","31","5","5","","","","","test","happy","fear","h","true"
"null","<div style=""font-size:60px;"">+</div>","null","html-keyboard-response","49","98119","0.0-9.0-0.20","g7stef","Mon Feb 15 2021 12:24:55 GMT+0100 (Central European Standard Time)","2021","2","15","12","24","55","um12","19 ","female","right","36","5","31","5","5","","","","","fixation","","","",""
"436.10500000067987","img/image_stim_h_stroop.png","72","image-keyboard-response","50","98557","0.0-9.0-1.20","g7stef","Mon Feb 15 2021 12:24:55 GMT+0100 (Central European Standard Time)","2021","2","15","12","24","55","um12","19 ","female","right","36","5","31","5","5","","","","","test","happy","fear","h","true"
"null","<div style=""font-size:60px;"">+</div>","null","html-keyboard-response","51","99063","0.0-9.0-0.21","g7stef","Mon Feb 15 2021 12:24:55 GMT+0100 (Central European Standard Time)","2021","2","15","12","24","55","um12","19 ","female","right","36","5","31","5","5","","","","","fixation","","","",""
"595.7150000031106","img/image_stim_f_stroop.png","70","image-keyboard-response","52","99660","0.0-9.0-1.21","g7stef","Mon Feb 15 2021 12:24:55 GMT+0100 (Central European Standard Time)","2021","2","15","12","24","55","um12","19 ","female","right","36","5","31","5","5","","","","","test","fear","happy","f","true"
"null","<div style=""font-size:60px;"">+</div>","null","html-keyboard-response","53","100165","0.0-9.0-0.22","g7stef","Mon Feb 15 2021 12:24:55 GMT+0100 (Central European Standard Time)","2021","2","15","12","24","55","um12","19 ","female","right","36","5","31","5","5","","","","","fixation","","","",""
"502.1649999980582","img/image_stim_f.png","70","image-keyboard-response","54","100670","0.0-9.0-1.22","g7stef","Mon Feb 15 2021 12:24:55 GMT+0100 (Central European Standard Time)","2021","2","15","12","24","55","um12","19 ","female","right","36","5","31","5","5","","","","","test","fear","fear","f","true"
"null","<div style=""font-size:60px;"">+</div>","null","html-keyboard-response","55","102179","0.0-9.0-0.23","g7stef","Mon Feb 15 2021 12:24:55 GMT+0100 (Central European Standard Time)","2021","2","15","12","24","55","um12","19 ","female","right","36","5","31","5","5","","","","","fixation","","","",""
"745.6299999976181","img/image_stim_h.png","72","image-keyboard-response","56","102926","0.0-9.0-1.23","g7stef","Mon Feb 15 2021 12:24:55 GMT+0100 (Central European Standard Time)","2021","2","15","12","24","55","um12","19 ","female","right","36","5","31","5","5","","","","","test","happy","happy","h","true"
"null","<div style=""font-size:60px;"">+</div>","null","html-keyboard-response","57","103936","0.0-9.0-0.24","g7stef","Mon Feb 15 2021 12:24:55 GMT+0100 (Central European Standard Time)","2021","2","15","12","24","55","um12","19 ","female","right","36","5","31","5","5","","","","","fixation","","","",""
"511.2599999993108","img/image_stim_f_stroop.png","70","image-keyboard-response","58","104449","0.0-9.0-1.24","g7stef","Mon Feb 15 2021 12:24:55 GMT+0100 (Central European Standard Time)","2021","2","15","12","24","55","um12","19 ","female","right","36","5","31","5","5","","","","","test","fear","happy","f","true"
"null","<div style=""font-size:60px;"">+</div>","null","html-keyboard-response","59","105706","0.0-9.0-0.25","g7stef","Mon Feb 15 2021 12:24:55 GMT+0100 (Central European Standard Time)","2021","2","15","12","24","55","um12","19 ","female","right","36","5","31","5","5","","","","","fixation","","","",""
"519.5299999977578","img/image_stim_f.png","70","image-keyboard-response","60","106227","0.0-9.0-1.25","g7stef","Mon Feb 15 2021 12:24:55 GMT+0100 (Central European Standard Time)","2021","2","15","12","24","55","um12","19 ","female","right","36","5","31","5","5","","","","","test","fear","fear","f","true"
"null","<div style=""font-size:60px;"">+</div>","null","html-keyboard-response","61","108236","0.0-9.0-0.26","g7stef","Mon Feb 15 2021 12:24:55 GMT+0100 (Central European Standard Time)","2021","2","15","12","24","55","um12","19 ","female","right","36","5","31","5","5","","","","","fixation","","","",""
"447.8649999946356","img/image_stim_h_stroop.png","72","image-keyboard-response","62","108687","0.0-9.0-1.26","g7stef","Mon Feb 15 2021 12:24:55 GMT+0100 (Central European Standard Time)","2021","2","15","12","24","55","um12","19 ","female","right","36","5","31","5","5","","","","","test","happy","fear","h","true"
"null","<div style=""font-size:60px;"">+</div>","null","html-keyboard-response","63","109703","0.0-9.0-0.27","g7stef","Mon Feb 15 2021 12:24:55 GMT+0100 (Central European Standard Time)","2021","2","15","12","24","55","um12","19 ","female","right","36","5","31","5","5","","","","","fixation","","","",""
"508.414999996603","img/image_stim_h.png","72","image-keyboard-response","64","110214","0.0-9.0-1.27","g7stef","Mon Feb 15 2021 12:24:55 GMT+0100 (Central European Standard Time)","2021","2","15","12","24","55","um12","19 ","female","right","36","5","31","5","5","","","","","test","happy","happy","h","true"
"null","<div style=""font-size:60px;"">+</div>","null","html-keyboard-response","65","111973","0.0-9.0-0.28","g7stef","Mon Feb 15 2021 12:24:55 GMT+0100 (Central European Standard Time)","2021","2","15","12","24","55","um12","19 ","female","right","36","5","31","5","5","","","","","fixation","","","",""
"511.78999999683583","img/image_stim_h.png","72","image-keyboard-response","66","112487","0.0-9.0-1.28","g7stef","Mon Feb 15 2021 12:24:55 GMT+0100 (Central European Standard Time)","2021","2","15","12","24","55","um12","19 ","female","right","36","5","31","5","5","","","","","test","happy","happy","h","true"
"null","<div style=""font-size:60px;"">+</div>","null","html-keyboard-response","67","113995","0.0-9.0-0.29","g7stef","Mon Feb 15 2021 12:24:55 GMT+0100 (Central European Standard Time)","2021","2","15","12","24","55","um12","19 ","female","right","36","5","31","5","5","","","","","fixation","","","",""
"591.695000002801","img/image_stim_f.png","70","image-keyboard-response","68","114589","0.0-9.0-1.29","g7stef","Mon Feb 15 2021 12:24:55 GMT+0100 (Central European Standard Time)","2021","2","15","12","24","55","um12","19 ","female","right","36","5","31","5","5","","","","","test","fear","fear","f","true"
"null","<div style=""font-size:60px;"">+</div>","null","html-keyboard-response","69","114850","0.0-9.0-0.30","g7stef","Mon Feb 15 2021 12:24:55 GMT+0100 (Central European Standard Time)","2021","2","15","12","24","55","um12","19 ","female","right","36","5","31","5","5","","","","","fixation","","","",""
"749.0699999980279","img/image_stim_h_stroop.png","72","image-keyboard-response","70","115601","0.0-9.0-1.30","g7stef","Mon Feb 15 2021 12:24:55 GMT+0100 (Central European Standard Time)","2021","2","15","12","24","55","um12","19 ","female","right","36","5","31","5","5","","","","","test","happy","fear","h","true"
"null","<div style=""font-size:60px;"">+</div>","null","html-keyboard-response","71","116106","0.0-9.0-0.31","g7stef","Mon Feb 15 2021 12:24:55 GMT+0100 (Central European Standard Time)","2021","2","15","12","24","55","um12","19 ","female","right","36","5","31","5","5","","","","","fixation","","","",""
"620.9700000035809","img/image_stim_f_stroop.png","70","image-keyboard-response","72","116729","0.0-9.0-1.31","g7stef","Mon Feb 15 2021 12:24:55 GMT+0100 (Central European Standard Time)","2021","2","15","12","24","55","um12","19 ","female","right","36","5","31","5","5","","","","","test","fear","happy","f","true"
"null","<div style=""font-size:60px;"">+</div>","null","html-keyboard-response","73","117735","0.0-9.0-0.32","g7stef","Mon Feb 15 2021 12:24:55 GMT+0100 (Central European Standard Time)","2021","2","15","12","24","55","um12","19 ","female","right","36","5","31","5","5","","","","","fixation","","","",""
"513.5200000004261","img/image_stim_h.png","72","image-keyboard-response","74","118250","0.0-9.0-1.32","g7stef","Mon Feb 15 2021 12:24:55 GMT+0100 (Central European Standard Time)","2021","2","15","12","24","55","um12","19 ","female","right","36","5","31","5","5","","","","","test","happy","happy","h","true"
"null","<div style=""font-size:60px;"">+</div>","null","html-keyboard-response","75","119258","0.0-9.0-0.33","g7stef","Mon Feb 15 2021 12:24:55 GMT+0100 (Central European Standard Time)","2021","2","15","12","24","55","um12","19 ","female","right","36","5","31","5","5","","","","","fixation","","","",""
"421.3999999992666","img/image_stim_f_stroop.png","72","image-keyboard-response","76","119681","0.0-9.0-1.33","g7stef","Mon Feb 15 2021 12:24:55 GMT+0100 (Central European Standard Time)","2021","2","15","12","24","55","um12","19 ","female","right","36","5","31","5","5","","","","","test","fear","happy","f","false"
"null","<div style=""font-size:60px;"">+</div>","null","html-keyboard-response","77","119942","0.0-9.0-0.34","g7stef","Mon Feb 15 2021 12:24:55 GMT+0100 (Central European Standard Time)","2021","2","15","12","24","55","um12","19 ","female","right","36","5","31","5","5","","","","","fixation","","","",""
"658.450000002631","img/image_stim_h_stroop.png","72","image-keyboard-response","78","120602","0.0-9.0-1.34","g7stef","Mon Feb 15 2021 12:24:55 GMT+0100 (Central European Standard Time)","2021","2","15","12","24","55","um12","19 ","female","right","36","5","31","5","5","","","","","test","happy","fear","h","true"
"null","<div style=""font-size:60px;"">+</div>","null","html-keyboard-response","79","121362","0.0-9.0-0.35","g7stef","Mon Feb 15 2021 12:24:55 GMT+0100 (Central European Standard Time)","2021","2","15","12","24","55","um12","19 ","female","right","36","5","31","5","5","","","","","fixation","","","",""
"606.2699999965844","img/image_stim_f.png","70","image-keyboard-response","80","121970","0.0-9.0-1.35","g7stef","Mon Feb 15 2021 12:24:55 GMT+0100 (Central European Standard Time)","2021","2","15","12","24","55","um12","19 ","female","right","36","5","31","5","5","","","","","test","fear","fear","f","true"
