"rt","stimulus","key_press","trial_type","trial_index","time_elapsed","internal_node_id","exp_id","Time","year","month","date","hour","minute","seconds","id","age","Gender","Handedness","mood","fresh","hunger","H_since_Sleep","H_since_Eat","responses","question_order","slider_start","response","test_part","face","word","correct_response","correct"
"4020","<p>Welcome to this experiment on daily rhythms and cognition.</p><p>First you will be asked some questions about yourself.</p><p>Then a short experiment will measure your response time.</p><p>Take the test at different times of the day/night.</p><p>The test is anonymous, but comparing your data across time is important.</p><p>Therefore, please make up and remember a personal ID (two letters+ two numbers).</p><p>Use this ID whenever taking the test.</p><p><strong>Press any key to begin.</strong></p>","32","html-keyboard-response","0","4022","0.0-0.0","3mfmmq","Thu Feb 10 2022 09:24:38 GMT+0100 (CET)","2022","2","10","9","24","38","pm99","23","male","right","57","24","42","2","14","","","","","","","","",""
"15767.000000000004","","","survey-text","1","19814","0.0-1.0","3mfmmq","Thu Feb 10 2022 09:24:38 GMT+0100 (CET)","2022","2","10","9","24","38","pm99","23","male","right","57","24","42","2","14","{""Q0"":""pm99""}","","","","","","","",""
"3638.9999999999964","","","survey-text","2","23460","0.0-2.0","3mfmmq","Thu Feb 10 2022 09:24:38 GMT+0100 (CET)","2022","2","10","9","24","38","pm99","23","male","right","57","24","42","2","14","{""Q0"":""23""}","","","","","","","",""
"3813","","","survey-multi-select","3","27276","0.0-3.0","3mfmmq","Thu Feb 10 2022 09:24:38 GMT+0100 (CET)","2022","2","10","9","24","38","pm99","23","male","right","57","24","42","2","14","{""Gender"":[""male""],""Hand"":[""right""]}","[0,1]","","","","","","",""
"5889","<p>How Sad/Angry or Happy are you right now?</p>","","html-slider-response","4","33168","0.0-4.0","3mfmmq","Thu Feb 10 2022 09:24:38 GMT+0100 (CET)","2022","2","10","9","24","38","pm99","23","male","right","57","24","42","2","14","","","50","57","","","","",""
"5217","<p>How Tired/Sleepy/Distracted or Fresh/Awake/Alert are you right now?</p>","","html-slider-response","5","38386","0.0-5.0","3mfmmq","Thu Feb 10 2022 09:24:38 GMT+0100 (CET)","2022","2","10","9","24","38","pm99","23","male","right","57","24","42","2","14","","","50","24","","","","",""
"6254","<p>How Hungry or Satiated are you right now?</p>","","html-slider-response","6","44642","0.0-6.0","3mfmmq","Thu Feb 10 2022 09:24:38 GMT+0100 (CET)","2022","2","10","9","24","38","pm99","23","male","right","57","24","42","2","14","","","50","42","","","","",""
"81892","","","survey-multi-select","7","126549","0.0-7.0","3mfmmq","Thu Feb 10 2022 09:24:38 GMT+0100 (CET)","2022","2","10","9","24","38","pm99","23","male","right","57","24","42","2","14","{""Sleep"":[""2""],""Eat"":[""14""]}","[0,1]","","","","","","",""
"31663.999999999985","<p>In this experiment, a face and a word will appear in the center of the screen.</p><p>If the face is <strong>happy</strong>, press the letter <strong>H</strong> with <strong>right</strong> index finger.</p><p>If the face is <strong>fearful</strong>, press the letter <strong>F</strong> with <strong>left</strong> index finger.</p><p><strong>Ignore the written words</strong>. Respond as fast as possible while being correct. </p><div style='width: 900px;'><div style='float: left;'><img src='img/stimuli_stroop_happy.png'></img><p class='small'><strong>Press the H key for happy faces</strong></p></div><div class='float: right;'><img src='img/stimuli_stroop_fear.png'></img><p class='small'><strong>Press the F key for faces with fear</strong></p></div></div><p>If the screen turns blank, press <strong>SPACE</strong></p><p><strong>Press any key to begin.</strong></p>","32","html-keyboard-response","8","158215","0.0-8.0","3mfmmq","Thu Feb 10 2022 09:24:38 GMT+0100 (CET)","2022","2","10","9","24","38","pm99","23","male","right","57","24","42","2","14","","","","","","","","",""
"null","<div style=""font-size:60px;"">+</div>","null","html-keyboard-response","9","160469","0.0-9.0-0.0","3mfmmq","Thu Feb 10 2022 09:24:38 GMT+0100 (CET)","2022","2","10","9","24","38","pm99","23","male","right","57","24","42","2","14","","","","","fixation","","","",""
"1152","img/image_stim_h.png","72","image-keyboard-response","10","161630","0.0-9.0-1.0","3mfmmq","Thu Feb 10 2022 09:24:38 GMT+0100 (CET)","2022","2","10","9","24","38","pm99","23","male","right","57","24","42","2","14","","","","","test","happy","happy","h","true"
"null","<div style=""font-size:60px;"">+</div>","null","html-keyboard-response","11","161887","0.0-9.0-0.1","3mfmmq","Thu Feb 10 2022 09:24:38 GMT+0100 (CET)","2022","2","10","9","24","38","pm99","23","male","right","57","24","42","2","14","","","","","fixation","","","",""
"574.9999999999709","img/image_stim_f.png","70","image-keyboard-response","12","162466","0.0-9.0-1.1","3mfmmq","Thu Feb 10 2022 09:24:38 GMT+0100 (CET)","2022","2","10","9","24","38","pm99","23","male","right","57","24","42","2","14","","","","","test","fear","fear","f","true"
"null","<div style=""font-size:60px;"">+</div>","null","html-keyboard-response","13","163970","0.0-9.0-0.2","3mfmmq","Thu Feb 10 2022 09:24:38 GMT+0100 (CET)","2022","2","10","9","24","38","pm99","23","male","right","57","24","42","2","14","","","","","fixation","","","",""
"1010","img/image_stim_f_stroop.png","72","image-keyboard-response","14","164984","0.0-9.0-1.2","3mfmmq","Thu Feb 10 2022 09:24:38 GMT+0100 (CET)","2022","2","10","9","24","38","pm99","23","male","right","57","24","42","2","14","","","","","test","fear","happy","f","false"
"null","<div style=""font-size:60px;"">+</div>","null","html-keyboard-response","15","166489","0.0-9.0-0.3","3mfmmq","Thu Feb 10 2022 09:24:38 GMT+0100 (CET)","2022","2","10","9","24","38","pm99","23","male","right","57","24","42","2","14","","","","","fixation","","","",""
"1731.000000000029","img/image_stim_h_stroop.png","72","image-keyboard-response","16","168223","0.0-9.0-1.3","3mfmmq","Thu Feb 10 2022 09:24:38 GMT+0100 (CET)","2022","2","10","9","24","38","pm99","23","male","right","57","24","42","2","14","","","","","test","happy","fear","h","true"
"null","<div style=""font-size:60px;"">+</div>","null","html-keyboard-response","17","169729","0.0-9.0-0.4","3mfmmq","Thu Feb 10 2022 09:24:38 GMT+0100 (CET)","2022","2","10","9","24","38","pm99","23","male","right","57","24","42","2","14","","","","","fixation","","","",""
"856","img/image_stim_f_stroop.png","70","image-keyboard-response","18","170587","0.0-9.0-1.4","3mfmmq","Thu Feb 10 2022 09:24:38 GMT+0100 (CET)","2022","2","10","9","24","38","pm99","23","male","right","57","24","42","2","14","","","","","test","fear","happy","f","true"
"null","<div style=""font-size:60px;"">+</div>","null","html-keyboard-response","19","171342","0.0-9.0-0.5","3mfmmq","Thu Feb 10 2022 09:24:38 GMT+0100 (CET)","2022","2","10","9","24","38","pm99","23","male","right","57","24","42","2","14","","","","","fixation","","","",""
"760","img/image_stim_h_stroop.png","72","image-keyboard-response","20","172105","0.0-9.0-1.5","3mfmmq","Thu Feb 10 2022 09:24:38 GMT+0100 (CET)","2022","2","10","9","24","38","pm99","23","male","right","57","24","42","2","14","","","","","test","happy","fear","h","true"
"null","<div style=""font-size:60px;"">+</div>","null","html-keyboard-response","21","173110","0.0-9.0-0.6","3mfmmq","Thu Feb 10 2022 09:24:38 GMT+0100 (CET)","2022","2","10","9","24","38","pm99","23","male","right","57","24","42","2","14","","","","","fixation","","","",""
"1052.000000000029","img/image_stim_f.png","70","image-keyboard-response","22","174164","0.0-9.0-1.6","3mfmmq","Thu Feb 10 2022 09:24:38 GMT+0100 (CET)","2022","2","10","9","24","38","pm99","23","male","right","57","24","42","2","14","","","","","test","fear","fear","f","true"
"null","<div style=""font-size:60px;"">+</div>","null","html-keyboard-response","23","175419","0.0-9.0-0.7","3mfmmq","Thu Feb 10 2022 09:24:38 GMT+0100 (CET)","2022","2","10","9","24","38","pm99","23","male","right","57","24","42","2","14","","","","","fixation","","","",""
"530","img/image_stim_h.png","72","image-keyboard-response","24","175952","0.0-9.0-1.7","3mfmmq","Thu Feb 10 2022 09:24:38 GMT+0100 (CET)","2022","2","10","9","24","38","pm99","23","male","right","57","24","42","2","14","","","","","test","happy","happy","h","true"
"null","<div style=""font-size:60px;"">+</div>","null","html-keyboard-response","25","177457","0.0-9.0-0.8","3mfmmq","Thu Feb 10 2022 09:24:38 GMT+0100 (CET)","2022","2","10","9","24","38","pm99","23","male","right","57","24","42","2","14","","","","","fixation","","","",""
"687.0000000000291","img/image_stim_f_stroop.png","70","image-keyboard-response","26","178146","0.0-9.0-1.8","3mfmmq","Thu Feb 10 2022 09:24:38 GMT+0100 (CET)","2022","2","10","9","24","38","pm99","23","male","right","57","24","42","2","14","","","","","test","fear","happy","f","true"
"null","<div style=""font-size:60px;"">+</div>","null","html-keyboard-response","27","178652","0.0-9.0-0.9","3mfmmq","Thu Feb 10 2022 09:24:38 GMT+0100 (CET)","2022","2","10","9","24","38","pm99","23","male","right","57","24","42","2","14","","","","","fixation","","","",""
"787","img/image_stim_f.png","70","image-keyboard-response","28","179442","0.0-9.0-1.9","3mfmmq","Thu Feb 10 2022 09:24:38 GMT+0100 (CET)","2022","2","10","9","24","38","pm99","23","male","right","57","24","42","2","14","","","","","test","fear","fear","f","true"
"null","<div style=""font-size:60px;"">+</div>","null","html-keyboard-response","29","180447","0.0-9.0-0.10","3mfmmq","Thu Feb 10 2022 09:24:38 GMT+0100 (CET)","2022","2","10","9","24","38","pm99","23","male","right","57","24","42","2","14","","","","","fixation","","","",""
"1150","img/image_stim_h.png","72","image-keyboard-response","30","181600","0.0-9.0-1.10","3mfmmq","Thu Feb 10 2022 09:24:38 GMT+0100 (CET)","2022","2","10","9","24","38","pm99","23","male","right","57","24","42","2","14","","","","","test","happy","happy","h","true"
"null","<div style=""font-size:60px;"">+</div>","null","html-keyboard-response","31","182606","0.0-9.0-0.11","3mfmmq","Thu Feb 10 2022 09:24:38 GMT+0100 (CET)","2022","2","10","9","24","38","pm99","23","male","right","57","24","42","2","14","","","","","fixation","","","",""
"735","img/image_stim_h_stroop.png","72","image-keyboard-response","32","183343","0.0-9.0-1.11","3mfmmq","Thu Feb 10 2022 09:24:38 GMT+0100 (CET)","2022","2","10","9","24","38","pm99","23","male","right","57","24","42","2","14","","","","","test","happy","fear","h","true"
"null","<div style=""font-size:60px;"">+</div>","null","html-keyboard-response","33","184849","0.0-9.0-0.12","3mfmmq","Thu Feb 10 2022 09:24:38 GMT+0100 (CET)","2022","2","10","9","24","38","pm99","23","male","right","57","24","42","2","14","","","","","fixation","","","",""
"789.0000000000291","img/image_stim_h_stroop.png","72","image-keyboard-response","34","185640","0.0-9.0-1.12","3mfmmq","Thu Feb 10 2022 09:24:38 GMT+0100 (CET)","2022","2","10","9","24","38","pm99","23","male","right","57","24","42","2","14","","","","","test","happy","fear","h","true"
"null","<div style=""font-size:60px;"">+</div>","null","html-keyboard-response","35","187396","0.0-9.0-0.13","3mfmmq","Thu Feb 10 2022 09:24:38 GMT+0100 (CET)","2022","2","10","9","24","38","pm99","23","male","right","57","24","42","2","14","","","","","fixation","","","",""
"559","img/image_stim_h.png","72","image-keyboard-response","36","187957","0.0-9.0-1.13","3mfmmq","Thu Feb 10 2022 09:24:38 GMT+0100 (CET)","2022","2","10","9","24","38","pm99","23","male","right","57","24","42","2","14","","","","","test","happy","happy","h","true"
"null","<div style=""font-size:60px;"">+</div>","null","html-keyboard-response","37","188962","0.0-9.0-0.14","3mfmmq","Thu Feb 10 2022 09:24:38 GMT+0100 (CET)","2022","2","10","9","24","38","pm99","23","male","right","57","24","42","2","14","","","","","fixation","","","",""
"577","img/image_stim_f.png","70","image-keyboard-response","38","189542","0.0-9.0-1.14","3mfmmq","Thu Feb 10 2022 09:24:38 GMT+0100 (CET)","2022","2","10","9","24","38","pm99","23","male","right","57","24","42","2","14","","","","","test","fear","fear","f","true"
"null","<div style=""font-size:60px;"">+</div>","null","html-keyboard-response","39","190548","0.0-9.0-0.15","3mfmmq","Thu Feb 10 2022 09:24:38 GMT+0100 (CET)","2022","2","10","9","24","38","pm99","23","male","right","57","24","42","2","14","","","","","fixation","","","",""
"747.9999999999709","img/image_stim_f_stroop.png","70","image-keyboard-response","40","191299","0.0-9.0-1.15","3mfmmq","Thu Feb 10 2022 09:24:38 GMT+0100 (CET)","2022","2","10","9","24","38","pm99","23","male","right","57","24","42","2","14","","","","","test","fear","happy","f","true"
"null","<div style=""font-size:60px;"">+</div>","null","html-keyboard-response","41","193055","0.0-9.0-0.16","3mfmmq","Thu Feb 10 2022 09:24:38 GMT+0100 (CET)","2022","2","10","9","24","38","pm99","23","male","right","57","24","42","2","14","","","","","fixation","","","",""
"511","img/image_stim_h.png","72","image-keyboard-response","42","193570","0.0-9.0-1.16","3mfmmq","Thu Feb 10 2022 09:24:38 GMT+0100 (CET)","2022","2","10","9","24","38","pm99","23","male","right","57","24","42","2","14","","","","","test","happy","happy","h","true"
"null","<div style=""font-size:60px;"">+</div>","null","html-keyboard-response","43","193825","0.0-9.0-0.17","3mfmmq","Thu Feb 10 2022 09:24:38 GMT+0100 (CET)","2022","2","10","9","24","38","pm99","23","male","right","57","24","42","2","14","","","","","fixation","","","",""
"562.0000000000291","img/image_stim_f_stroop.png","70","image-keyboard-response","44","194391","0.0-9.0-1.17","3mfmmq","Thu Feb 10 2022 09:24:38 GMT+0100 (CET)","2022","2","10","9","24","38","pm99","23","male","right","57","24","42","2","14","","","","","test","fear","happy","f","true"
"null","<div style=""font-size:60px;"">+</div>","null","html-keyboard-response","45","195646","0.0-9.0-0.18","3mfmmq","Thu Feb 10 2022 09:24:38 GMT+0100 (CET)","2022","2","10","9","24","38","pm99","23","male","right","57","24","42","2","14","","","","","fixation","","","",""
"610.0000000000291","img/image_stim_f.png","70","image-keyboard-response","46","196259","0.0-9.0-1.18","3mfmmq","Thu Feb 10 2022 09:24:38 GMT+0100 (CET)","2022","2","10","9","24","38","pm99","23","male","right","57","24","42","2","14","","","","","test","fear","fear","f","true"
"null","<div style=""font-size:60px;"">+</div>","null","html-keyboard-response","47","196764","0.0-9.0-0.19","3mfmmq","Thu Feb 10 2022 09:24:38 GMT+0100 (CET)","2022","2","10","9","24","38","pm99","23","male","right","57","24","42","2","14","","","","","fixation","","","",""
"481","img/image_stim_h_stroop.png","72","image-keyboard-response","48","197248","0.0-9.0-1.19","3mfmmq","Thu Feb 10 2022 09:24:38 GMT+0100 (CET)","2022","2","10","9","24","38","pm99","23","male","right","57","24","42","2","14","","","","","test","happy","fear","h","true"
"null","<div style=""font-size:60px;"">+</div>","null","html-keyboard-response","49","198254","0.0-9.0-0.20","3mfmmq","Thu Feb 10 2022 09:24:38 GMT+0100 (CET)","2022","2","10","9","24","38","pm99","23","male","right","57","24","42","2","14","","","","","fixation","","","",""
"477","img/image_stim_h.png","72","image-keyboard-response","50","198734","0.0-9.0-1.20","3mfmmq","Thu Feb 10 2022 09:24:38 GMT+0100 (CET)","2022","2","10","9","24","38","pm99","23","male","right","57","24","42","2","14","","","","","test","happy","happy","h","true"
"null","<div style=""font-size:60px;"">+</div>","null","html-keyboard-response","51","199990","0.0-9.0-0.21","3mfmmq","Thu Feb 10 2022 09:24:38 GMT+0100 (CET)","2022","2","10","9","24","38","pm99","23","male","right","57","24","42","2","14","","","","","fixation","","","",""
"338","img/image_stim_f_stroop.png","70","image-keyboard-response","52","200331","0.0-9.0-1.21","3mfmmq","Thu Feb 10 2022 09:24:38 GMT+0100 (CET)","2022","2","10","9","24","38","pm99","23","male","right","57","24","42","2","14","","","","","test","fear","happy","f","true"
"null","<div style=""font-size:60px;"">+</div>","null","html-keyboard-response","53","201836","0.0-9.0-0.22","3mfmmq","Thu Feb 10 2022 09:24:38 GMT+0100 (CET)","2022","2","10","9","24","38","pm99","23","male","right","57","24","42","2","14","","","","","fixation","","","",""
"550","img/image_stim_h_stroop.png","72","image-keyboard-response","54","202390","0.0-9.0-1.22","3mfmmq","Thu Feb 10 2022 09:24:38 GMT+0100 (CET)","2022","2","10","9","24","38","pm99","23","male","right","57","24","42","2","14","","","","","test","happy","fear","h","true"
"null","<div style=""font-size:60px;"">+</div>","null","html-keyboard-response","55","204395","0.0-9.0-0.23","3mfmmq","Thu Feb 10 2022 09:24:38 GMT+0100 (CET)","2022","2","10","9","24","38","pm99","23","male","right","57","24","42","2","14","","","","","fixation","","","",""
"389","img/image_stim_f.png","70","image-keyboard-response","56","204787","0.0-9.0-1.23","3mfmmq","Thu Feb 10 2022 09:24:38 GMT+0100 (CET)","2022","2","10","9","24","38","pm99","23","male","right","57","24","42","2","14","","","","","test","fear","fear","f","true"
"null","<div style=""font-size:60px;"">+</div>","null","html-keyboard-response","57","206793","0.0-9.0-0.24","3mfmmq","Thu Feb 10 2022 09:24:38 GMT+0100 (CET)","2022","2","10","9","24","38","pm99","23","male","right","57","24","42","2","14","","","","","fixation","","","",""
"657","img/image_stim_h.png","72","image-keyboard-response","58","207453","0.0-9.0-1.24","3mfmmq","Thu Feb 10 2022 09:24:38 GMT+0100 (CET)","2022","2","10","9","24","38","pm99","23","male","right","57","24","42","2","14","","","","","test","happy","happy","h","true"
"null","<div style=""font-size:60px;"">+</div>","null","html-keyboard-response","59","208459","0.0-9.0-0.25","3mfmmq","Thu Feb 10 2022 09:24:38 GMT+0100 (CET)","2022","2","10","9","24","38","pm99","23","male","right","57","24","42","2","14","","","","","fixation","","","",""
"554","img/image_stim_f.png","70","image-keyboard-response","60","209016","0.0-9.0-1.25","3mfmmq","Thu Feb 10 2022 09:24:38 GMT+0100 (CET)","2022","2","10","9","24","38","pm99","23","male","right","57","24","42","2","14","","","","","test","fear","fear","f","true"
"null","<div style=""font-size:60px;"">+</div>","null","html-keyboard-response","61","211022","0.0-9.0-0.26","3mfmmq","Thu Feb 10 2022 09:24:38 GMT+0100 (CET)","2022","2","10","9","24","38","pm99","23","male","right","57","24","42","2","14","","","","","fixation","","","",""
"815","img/image_stim_f_stroop.png","72","image-keyboard-response","62","211840","0.0-9.0-1.26","3mfmmq","Thu Feb 10 2022 09:24:38 GMT+0100 (CET)","2022","2","10","9","24","38","pm99","23","male","right","57","24","42","2","14","","","","","test","fear","happy","f","false"
"null","<div style=""font-size:60px;"">+</div>","null","html-keyboard-response","63","213346","0.0-9.0-0.27","3mfmmq","Thu Feb 10 2022 09:24:38 GMT+0100 (CET)","2022","2","10","9","24","38","pm99","23","male","right","57","24","42","2","14","","","","","fixation","","","",""
"730","img/image_stim_h_stroop.png","72","image-keyboard-response","64","214079","0.0-9.0-1.27","3mfmmq","Thu Feb 10 2022 09:24:38 GMT+0100 (CET)","2022","2","10","9","24","38","pm99","23","male","right","57","24","42","2","14","","","","","test","happy","fear","h","true"
"null","<div style=""font-size:60px;"">+</div>","null","html-keyboard-response","65","216086","0.0-9.0-0.28","3mfmmq","Thu Feb 10 2022 09:24:38 GMT+0100 (CET)","2022","2","10","9","24","38","pm99","23","male","right","57","24","42","2","14","","","","","fixation","","","",""
"578","img/image_stim_f.png","70","image-keyboard-response","66","216666","0.0-9.0-1.28","3mfmmq","Thu Feb 10 2022 09:24:38 GMT+0100 (CET)","2022","2","10","9","24","38","pm99","23","male","right","57","24","42","2","14","","","","","test","fear","fear","f","true"
"null","<div style=""font-size:60px;"">+</div>","null","html-keyboard-response","67","217922","0.0-9.0-0.29","3mfmmq","Thu Feb 10 2022 09:24:38 GMT+0100 (CET)","2022","2","10","9","24","38","pm99","23","male","right","57","24","42","2","14","","","","","fixation","","","",""
"495.9999999999709","img/image_stim_h.png","72","image-keyboard-response","68","218422","0.0-9.0-1.29","3mfmmq","Thu Feb 10 2022 09:24:38 GMT+0100 (CET)","2022","2","10","9","24","38","pm99","23","male","right","57","24","42","2","14","","","","","test","happy","happy","h","true"
"null","<div style=""font-size:60px;"">+</div>","null","html-keyboard-response","69","220178","0.0-9.0-0.30","3mfmmq","Thu Feb 10 2022 09:24:38 GMT+0100 (CET)","2022","2","10","9","24","38","pm99","23","male","right","57","24","42","2","14","","","","","fixation","","","",""
"772","img/image_stim_h_stroop.png","72","image-keyboard-response","70","220953","0.0-9.0-1.30","3mfmmq","Thu Feb 10 2022 09:24:38 GMT+0100 (CET)","2022","2","10","9","24","38","pm99","23","male","right","57","24","42","2","14","","","","","test","happy","fear","h","true"
"null","<div style=""font-size:60px;"">+</div>","null","html-keyboard-response","71","221709","0.0-9.0-0.31","3mfmmq","Thu Feb 10 2022 09:24:38 GMT+0100 (CET)","2022","2","10","9","24","38","pm99","23","male","right","57","24","42","2","14","","","","","fixation","","","",""
"793","img/image_stim_f_stroop.png","70","image-keyboard-response","72","222505","0.0-9.0-1.31","3mfmmq","Thu Feb 10 2022 09:24:38 GMT+0100 (CET)","2022","2","10","9","24","38","pm99","23","male","right","57","24","42","2","14","","","","","test","fear","happy","f","true"
"null","<div style=""font-size:60px;"">+</div>","null","html-keyboard-response","73","223262","0.0-9.0-0.32","3mfmmq","Thu Feb 10 2022 09:24:38 GMT+0100 (CET)","2022","2","10","9","24","38","pm99","23","male","right","57","24","42","2","14","","","","","fixation","","","",""
"547","img/image_stim_h.png","72","image-keyboard-response","74","223811","0.0-9.0-1.32","3mfmmq","Thu Feb 10 2022 09:24:38 GMT+0100 (CET)","2022","2","10","9","24","38","pm99","23","male","right","57","24","42","2","14","","","","","test","happy","happy","h","true"
"null","<div style=""font-size:60px;"">+</div>","null","html-keyboard-response","75","224317","0.0-9.0-0.33","3mfmmq","Thu Feb 10 2022 09:24:38 GMT+0100 (CET)","2022","2","10","9","24","38","pm99","23","male","right","57","24","42","2","14","","","","","fixation","","","",""
"558.0000000000291","img/image_stim_f.png","70","image-keyboard-response","76","224878","0.0-9.0-1.33","3mfmmq","Thu Feb 10 2022 09:24:38 GMT+0100 (CET)","2022","2","10","9","24","38","pm99","23","male","right","57","24","42","2","14","","","","","test","fear","fear","f","true"
"null","<div style=""font-size:60px;"">+</div>","null","html-keyboard-response","77","226383","0.0-9.0-0.34","3mfmmq","Thu Feb 10 2022 09:24:38 GMT+0100 (CET)","2022","2","10","9","24","38","pm99","23","male","right","57","24","42","2","14","","","","","fixation","","","",""
"537","img/image_stim_f_stroop.png","70","image-keyboard-response","78","226923","0.0-9.0-1.34","3mfmmq","Thu Feb 10 2022 09:24:38 GMT+0100 (CET)","2022","2","10","9","24","38","pm99","23","male","right","57","24","42","2","14","","","","","test","fear","happy","f","true"
"null","<div style=""font-size:60px;"">+</div>","null","html-keyboard-response","79","228178","0.0-9.0-0.35","3mfmmq","Thu Feb 10 2022 09:24:38 GMT+0100 (CET)","2022","2","10","9","24","38","pm99","23","male","right","57","24","42","2","14","","","","","fixation","","","",""
"1002","img/image_stim_h_stroop.png","72","image-keyboard-response","80","229183","0.0-9.0-1.35","3mfmmq","Thu Feb 10 2022 09:24:38 GMT+0100 (CET)","2022","2","10","9","24","38","pm99","23","male","right","57","24","42","2","14","","","","","test","happy","fear","h","true"
