"rt","stimulus","key_press","trial_type","trial_index","time_elapsed","internal_node_id","exp_id","Time","year","month","date","hour","minute","seconds","id","age","Gender","Handedness","mood","fresh","hunger","H_since_Sleep","H_since_Eat","responses","question_order","slider_start","response","test_part","face","word","correct_response","correct"
"1629.2350000003353","<p>Welcome to this experiment on daily rhythms and cognition.</p><p>First you will be asked some questions about yourself.</p><p>Then a short experiment will measure your response time.</p><p>Take the test at different times of the day/night.</p><p>The test is anonymous, but comparing your data across time is important.</p><p>Therefore, please make up and remember a personal ID (two letters+ two numbers).</p><p>Use this ID whenever taking the test.</p><p><strong>Press any key to begin.</strong></p>","13","html-keyboard-response","0","1634","0.0-0.0","oltrjg","Tue Feb 16 2021 08:52:38 GMT+0100 (Centraleuropæisk normaltid)","2021","2","16","8","52","38","lb11","57","female","left","90","92","90","1","0","","","","","","","","",""
"3037.6850000029663","","","survey-text","1","4677","0.0-1.0","oltrjg","Tue Feb 16 2021 08:52:38 GMT+0100 (Centraleuropæisk normaltid)","2021","2","16","8","52","38","lb11","57","female","left","90","92","90","1","0","{""Q0"":""lb11""}","","","","","","","",""
"7077.044999998179","","","survey-text","2","11756","0.0-2.0","oltrjg","Tue Feb 16 2021 08:52:38 GMT+0100 (Centraleuropæisk normaltid)","2021","2","16","8","52","38","lb11","57","female","left","90","92","90","1","0","{""Q0"":""57""}","","","","","","","",""
"4347.109999998793","","","survey-multi-select","3","16106","0.0-3.0","oltrjg","Tue Feb 16 2021 08:52:38 GMT+0100 (Centraleuropæisk normaltid)","2021","2","16","8","52","38","lb11","57","female","left","90","92","90","1","0","{""Gender"":[""female""],""Hand"":[""left""]}","[0,1]","","","","","","",""
"37639.09000000058","<p>How Sad/Angry or Happy are you right now?</p>","","html-slider-response","4","53748","0.0-4.0","oltrjg","Tue Feb 16 2021 08:52:38 GMT+0100 (Centraleuropæisk normaltid)","2021","2","16","8","52","38","lb11","57","female","left","90","92","90","1","0","","","50","90","","","","",""
"11248.705000001792","<p>How Tired/Sleepy/Distracted or Fresh/Awake/Alert are you right now?</p>","","html-slider-response","5","65000","0.0-5.0","oltrjg","Tue Feb 16 2021 08:52:38 GMT+0100 (Centraleuropæisk normaltid)","2021","2","16","8","52","38","lb11","57","female","left","90","92","90","1","0","","","50","92","","","","",""
"9653.659999999945","<p>How Hungry or Satiated are you right now?</p>","","html-slider-response","6","74655","0.0-6.0","oltrjg","Tue Feb 16 2021 08:52:38 GMT+0100 (Centraleuropæisk normaltid)","2021","2","16","8","52","38","lb11","57","female","left","90","92","90","1","0","","","50","90","","","","",""
"16913.72500000216","","","survey-multi-select","7","91584","0.0-7.0","oltrjg","Tue Feb 16 2021 08:52:38 GMT+0100 (Centraleuropæisk normaltid)","2021","2","16","8","52","38","lb11","57","female","left","90","92","90","1","0","{""Sleep"":[""1""],""Eat"":[""0""]}","[0,1]","","","","","","",""
"35258.23500000115","<p>In this experiment, a face and a word will appear in the center of the screen.</p><p>If the face is <strong>happy</strong>, press the letter <strong>H</strong> with <strong>right</strong> index finger.</p><p>If the face is <strong>fearful</strong>, press the letter <strong>F</strong> with <strong>left</strong> index finger.</p><p><strong>Ignore the written words</strong>. Respond as fast as possible while being correct. </p><div style='width: 900px;'><div style='float: left;'><img src='img/stimuli_stroop_happy.png'></img><p class='small'><strong>Press the H key for happy faces</strong></p></div><div class='float: right;'><img src='img/stimuli_stroop_fear.png'></img><p class='small'><strong>Press the F key for faces with fear</strong></p></div></div><p>If the screen turns blank, press <strong>SPACE</strong></p><p><strong>Press any key to begin.</strong></p>","70","html-keyboard-response","8","126842","0.0-8.0","oltrjg","Tue Feb 16 2021 08:52:38 GMT+0100 (Centraleuropæisk normaltid)","2021","2","16","8","52","38","lb11","57","female","left","90","92","90","1","0","","","","","","","","",""
"null","<div style=""font-size:60px;"">+</div>","null","html-keyboard-response","9","129601","0.0-9.0-0.0","oltrjg","Tue Feb 16 2021 08:52:38 GMT+0100 (Centraleuropæisk normaltid)","2021","2","16","8","52","38","lb11","57","female","left","90","92","90","1","0","","","","","fixation","","","",""
"1810.83000000217","img/image_stim_h.png","72","image-keyboard-response","10","131442","0.0-9.0-1.0","oltrjg","Tue Feb 16 2021 08:52:38 GMT+0100 (Centraleuropæisk normaltid)","2021","2","16","8","52","38","lb11","57","female","left","90","92","90","1","0","","","","","test","happy","happy","h","true"
"null","<div style=""font-size:60px;"">+</div>","null","html-keyboard-response","11","132455","0.0-9.0-0.1","oltrjg","Tue Feb 16 2021 08:52:38 GMT+0100 (Centraleuropæisk normaltid)","2021","2","16","8","52","38","lb11","57","female","left","90","92","90","1","0","","","","","fixation","","","",""
"814.5049999984622","img/image_stim_f.png","70","image-keyboard-response","12","133272","0.0-9.0-1.1","oltrjg","Tue Feb 16 2021 08:52:38 GMT+0100 (Centraleuropæisk normaltid)","2021","2","16","8","52","38","lb11","57","female","left","90","92","90","1","0","","","","","test","fear","fear","f","true"
"null","<div style=""font-size:60px;"">+</div>","null","html-keyboard-response","13","134780","0.0-9.0-0.2","oltrjg","Tue Feb 16 2021 08:52:38 GMT+0100 (Centraleuropæisk normaltid)","2021","2","16","8","52","38","lb11","57","female","left","90","92","90","1","0","","","","","fixation","","","",""
"719.119999997929","img/image_stim_f_stroop.png","72","image-keyboard-response","14","135502","0.0-9.0-1.2","oltrjg","Tue Feb 16 2021 08:52:38 GMT+0100 (Centraleuropæisk normaltid)","2021","2","16","8","52","38","lb11","57","female","left","90","92","90","1","0","","","","","test","fear","happy","f","false"
"null","<div style=""font-size:60px;"">+</div>","null","html-keyboard-response","15","136511","0.0-9.0-0.3","oltrjg","Tue Feb 16 2021 08:52:38 GMT+0100 (Centraleuropæisk normaltid)","2021","2","16","8","52","38","lb11","57","female","left","90","92","90","1","0","","","","","fixation","","","",""
"1151.6499999997905","img/image_stim_h_stroop.png","72","image-keyboard-response","16","137666","0.0-9.0-1.3","oltrjg","Tue Feb 16 2021 08:52:38 GMT+0100 (Centraleuropæisk normaltid)","2021","2","16","8","52","38","lb11","57","female","left","90","92","90","1","0","","","","","test","happy","fear","h","true"
"null","<div style=""font-size:60px;"">+</div>","null","html-keyboard-response","17","139179","0.0-9.0-0.4","oltrjg","Tue Feb 16 2021 08:52:38 GMT+0100 (Centraleuropæisk normaltid)","2021","2","16","8","52","38","lb11","57","female","left","90","92","90","1","0","","","","","fixation","","","",""
"1039.4899999992049","img/image_stim_f_stroop.png","70","image-keyboard-response","18","140221","0.0-9.0-1.4","oltrjg","Tue Feb 16 2021 08:52:38 GMT+0100 (Centraleuropæisk normaltid)","2021","2","16","8","52","38","lb11","57","female","left","90","92","90","1","0","","","","","test","fear","happy","f","true"
"null","<div style=""font-size:60px;"">+</div>","null","html-keyboard-response","19","140980","0.0-9.0-0.5","oltrjg","Tue Feb 16 2021 08:52:38 GMT+0100 (Centraleuropæisk normaltid)","2021","2","16","8","52","38","lb11","57","female","left","90","92","90","1","0","","","","","fixation","","","",""
"983.1449999983306","img/image_stim_h_stroop.png","72","image-keyboard-response","20","141966","0.0-9.0-1.5","oltrjg","Tue Feb 16 2021 08:52:38 GMT+0100 (Centraleuropæisk normaltid)","2021","2","16","8","52","38","lb11","57","female","left","90","92","90","1","0","","","","","test","happy","fear","h","true"
"null","<div style=""font-size:60px;"">+</div>","null","html-keyboard-response","21","142226","0.0-9.0-0.6","oltrjg","Tue Feb 16 2021 08:52:38 GMT+0100 (Centraleuropæisk normaltid)","2021","2","16","8","52","38","lb11","57","female","left","90","92","90","1","0","","","","","fixation","","","",""
"727.4450000004435","img/image_stim_h.png","72","image-keyboard-response","22","142956","0.0-9.0-1.6","oltrjg","Tue Feb 16 2021 08:52:38 GMT+0100 (Centraleuropæisk normaltid)","2021","2","16","8","52","38","lb11","57","female","left","90","92","90","1","0","","","","","test","happy","happy","h","true"
"null","<div style=""font-size:60px;"">+</div>","null","html-keyboard-response","23","143478","0.0-9.0-0.7","oltrjg","Tue Feb 16 2021 08:52:38 GMT+0100 (Centraleuropæisk normaltid)","2021","2","16","8","52","38","lb11","57","female","left","90","92","90","1","0","","","","","fixation","","","",""
"782.5750000010885","img/image_stim_f.png","70","image-keyboard-response","24","144264","0.0-9.0-1.7","oltrjg","Tue Feb 16 2021 08:52:38 GMT+0100 (Centraleuropæisk normaltid)","2021","2","16","8","52","38","lb11","57","female","left","90","92","90","1","0","","","","","test","fear","fear","f","true"
"null","<div style=""font-size:60px;"">+</div>","null","html-keyboard-response","25","144522","0.0-9.0-0.8","oltrjg","Tue Feb 16 2021 08:52:38 GMT+0100 (Centraleuropæisk normaltid)","2021","2","16","8","52","38","lb11","57","female","left","90","92","90","1","0","","","","","fixation","","","",""
"718.2749999992666","img/image_stim_f_stroop.png","70","image-keyboard-response","26","145243","0.0-9.0-1.8","oltrjg","Tue Feb 16 2021 08:52:38 GMT+0100 (Centraleuropæisk normaltid)","2021","2","16","8","52","38","lb11","57","female","left","90","92","90","1","0","","","","","test","fear","happy","f","true"
"null","<div style=""font-size:60px;"">+</div>","null","html-keyboard-response","27","147250","0.0-9.0-0.9","oltrjg","Tue Feb 16 2021 08:52:38 GMT+0100 (Centraleuropæisk normaltid)","2021","2","16","8","52","38","lb11","57","female","left","90","92","90","1","0","","","","","fixation","","","",""
"820.3949999988254","img/image_stim_h.png","72","image-keyboard-response","28","148074","0.0-9.0-1.9","oltrjg","Tue Feb 16 2021 08:52:38 GMT+0100 (Centraleuropæisk normaltid)","2021","2","16","8","52","38","lb11","57","female","left","90","92","90","1","0","","","","","test","happy","happy","h","true"
"null","<div style=""font-size:60px;"">+</div>","null","html-keyboard-response","29","149585","0.0-9.0-0.10","oltrjg","Tue Feb 16 2021 08:52:38 GMT+0100 (Centraleuropæisk normaltid)","2021","2","16","8","52","38","lb11","57","female","left","90","92","90","1","0","","","","","fixation","","","",""
"837.0250000007218","img/image_stim_f.png","70","image-keyboard-response","30","150425","0.0-9.0-1.10","oltrjg","Tue Feb 16 2021 08:52:38 GMT+0100 (Centraleuropæisk normaltid)","2021","2","16","8","52","38","lb11","57","female","left","90","92","90","1","0","","","","","test","fear","fear","f","true"
"null","<div style=""font-size:60px;"">+</div>","null","html-keyboard-response","31","152183","0.0-9.0-0.11","oltrjg","Tue Feb 16 2021 08:52:38 GMT+0100 (Centraleuropæisk normaltid)","2021","2","16","8","52","38","lb11","57","female","left","90","92","90","1","0","","","","","fixation","","","",""
"947.1400000002177","img/image_stim_h_stroop.png","72","image-keyboard-response","32","153133","0.0-9.0-1.11","oltrjg","Tue Feb 16 2021 08:52:38 GMT+0100 (Centraleuropæisk normaltid)","2021","2","16","8","52","38","lb11","57","female","left","90","92","90","1","0","","","","","test","happy","fear","h","true"
"null","<div style=""font-size:60px;"">+</div>","null","html-keyboard-response","33","155141","0.0-9.0-0.12","oltrjg","Tue Feb 16 2021 08:52:38 GMT+0100 (Centraleuropæisk normaltid)","2021","2","16","8","52","38","lb11","57","female","left","90","92","90","1","0","","","","","fixation","","","",""
"546.3099999979022","img/image_stim_h_stroop.png","72","image-keyboard-response","34","155692","0.0-9.0-1.12","oltrjg","Tue Feb 16 2021 08:52:38 GMT+0100 (Centraleuropæisk normaltid)","2021","2","16","8","52","38","lb11","57","female","left","90","92","90","1","0","","","","","test","happy","fear","h","true"
"null","<div style=""font-size:60px;"">+</div>","null","html-keyboard-response","35","156953","0.0-9.0-0.13","oltrjg","Tue Feb 16 2021 08:52:38 GMT+0100 (Centraleuropæisk normaltid)","2021","2","16","8","52","38","lb11","57","female","left","90","92","90","1","0","","","","","fixation","","","",""
"482.6599999978498","img/image_stim_f.png","70","image-keyboard-response","36","157438","0.0-9.0-1.13","oltrjg","Tue Feb 16 2021 08:52:38 GMT+0100 (Centraleuropæisk normaltid)","2021","2","16","8","52","38","lb11","57","female","left","90","92","90","1","0","","","","","test","fear","fear","f","true"
"null","<div style=""font-size:60px;"">+</div>","null","html-keyboard-response","37","158950","0.0-9.0-0.14","oltrjg","Tue Feb 16 2021 08:52:38 GMT+0100 (Centraleuropæisk normaltid)","2021","2","16","8","52","38","lb11","57","female","left","90","92","90","1","0","","","","","fixation","","","",""
"506.04999999995925","img/image_stim_h.png","72","image-keyboard-response","38","159459","0.0-9.0-1.14","oltrjg","Tue Feb 16 2021 08:52:38 GMT+0100 (Centraleuropæisk normaltid)","2021","2","16","8","52","38","lb11","57","female","left","90","92","90","1","0","","","","","test","happy","happy","h","true"
"null","<div style=""font-size:60px;"">+</div>","null","html-keyboard-response","39","160226","0.0-9.0-0.15","oltrjg","Tue Feb 16 2021 08:52:38 GMT+0100 (Centraleuropæisk normaltid)","2021","2","16","8","52","38","lb11","57","female","left","90","92","90","1","0","","","","","fixation","","","",""
"416.4700000001176","img/image_stim_f_stroop.png","70","image-keyboard-response","40","160645","0.0-9.0-1.15","oltrjg","Tue Feb 16 2021 08:52:38 GMT+0100 (Centraleuropæisk normaltid)","2021","2","16","8","52","38","lb11","57","female","left","90","92","90","1","0","","","","","test","fear","happy","f","true"
"null","<div style=""font-size:60px;"">+</div>","null","html-keyboard-response","41","161154","0.0-9.0-0.16","oltrjg","Tue Feb 16 2021 08:52:38 GMT+0100 (Centraleuropæisk normaltid)","2021","2","16","8","52","38","lb11","57","female","left","90","92","90","1","0","","","","","fixation","","","",""
"497.6600000009057","img/image_stim_h.png","72","image-keyboard-response","42","161654","0.0-9.0-1.16","oltrjg","Tue Feb 16 2021 08:52:38 GMT+0100 (Centraleuropæisk normaltid)","2021","2","16","8","52","38","lb11","57","female","left","90","92","90","1","0","","","","","test","happy","happy","h","true"
"null","<div style=""font-size:60px;"">+</div>","null","html-keyboard-response","43","161914","0.0-9.0-0.17","oltrjg","Tue Feb 16 2021 08:52:38 GMT+0100 (Centraleuropæisk normaltid)","2021","2","16","8","52","38","lb11","57","female","left","90","92","90","1","0","","","","","fixation","","","",""
"497.9750000020431","img/image_stim_f.png","70","image-keyboard-response","44","162414","0.0-9.0-1.17","oltrjg","Tue Feb 16 2021 08:52:38 GMT+0100 (Centraleuropæisk normaltid)","2021","2","16","8","52","38","lb11","57","female","left","90","92","90","1","0","","","","","test","fear","fear","f","true"
"null","<div style=""font-size:60px;"">+</div>","null","html-keyboard-response","45","164178","0.0-9.0-0.18","oltrjg","Tue Feb 16 2021 08:52:38 GMT+0100 (Centraleuropæisk normaltid)","2021","2","16","8","52","38","lb11","57","female","left","90","92","90","1","0","","","","","fixation","","","",""
"734.7950000003038","img/image_stim_f_stroop.png","70","image-keyboard-response","46","164916","0.0-9.0-1.18","oltrjg","Tue Feb 16 2021 08:52:38 GMT+0100 (Centraleuropæisk normaltid)","2021","2","16","8","52","38","lb11","57","female","left","90","92","90","1","0","","","","","test","fear","happy","f","true"
"null","<div style=""font-size:60px;"">+</div>","null","html-keyboard-response","47","166926","0.0-9.0-0.19","oltrjg","Tue Feb 16 2021 08:52:38 GMT+0100 (Centraleuropæisk normaltid)","2021","2","16","8","52","38","lb11","57","female","left","90","92","90","1","0","","","","","fixation","","","",""
"658.7199999994482","img/image_stim_h_stroop.png","72","image-keyboard-response","48","167587","0.0-9.0-1.19","oltrjg","Tue Feb 16 2021 08:52:38 GMT+0100 (Centraleuropæisk normaltid)","2021","2","16","8","52","38","lb11","57","female","left","90","92","90","1","0","","","","","test","happy","fear","h","true"
"null","<div style=""font-size:60px;"">+</div>","null","html-keyboard-response","49","168853","0.0-9.0-0.20","oltrjg","Tue Feb 16 2021 08:52:38 GMT+0100 (Centraleuropæisk normaltid)","2021","2","16","8","52","38","lb11","57","female","left","90","92","90","1","0","","","","","fixation","","","",""
"411.7200000000594","img/image_stim_h.png","70","image-keyboard-response","50","169267","0.0-9.0-1.20","oltrjg","Tue Feb 16 2021 08:52:38 GMT+0100 (Centraleuropæisk normaltid)","2021","2","16","8","52","38","lb11","57","female","left","90","92","90","1","0","","","","","test","happy","happy","h","false"
"null","<div style=""font-size:60px;"">+</div>","null","html-keyboard-response","51","170525","0.0-9.0-0.21","oltrjg","Tue Feb 16 2021 08:52:38 GMT+0100 (Centraleuropæisk normaltid)","2021","2","16","8","52","38","lb11","57","female","left","90","92","90","1","0","","","","","fixation","","","",""
"682.6200000032259","img/image_stim_f_stroop.png","70","image-keyboard-response","52","171211","0.0-9.0-1.21","oltrjg","Tue Feb 16 2021 08:52:38 GMT+0100 (Centraleuropæisk normaltid)","2021","2","16","8","52","38","lb11","57","female","left","90","92","90","1","0","","","","","test","fear","happy","f","true"
"null","<div style=""font-size:60px;"">+</div>","null","html-keyboard-response","53","172482","0.0-9.0-0.22","oltrjg","Tue Feb 16 2021 08:52:38 GMT+0100 (Centraleuropæisk normaltid)","2021","2","16","8","52","38","lb11","57","female","left","90","92","90","1","0","","","","","fixation","","","",""
"493.99999999877764","img/image_stim_f.png","72","image-keyboard-response","54","172979","0.0-9.0-1.22","oltrjg","Tue Feb 16 2021 08:52:38 GMT+0100 (Centraleuropæisk normaltid)","2021","2","16","8","52","38","lb11","57","female","left","90","92","90","1","0","","","","","test","fear","fear","f","false"
"null","<div style=""font-size:60px;"">+</div>","null","html-keyboard-response","55","174239","0.0-9.0-0.23","oltrjg","Tue Feb 16 2021 08:52:38 GMT+0100 (Centraleuropæisk normaltid)","2021","2","16","8","52","38","lb11","57","female","left","90","92","90","1","0","","","","","fixation","","","",""
"929.0949999995064","img/image_stim_h_stroop.png","72","image-keyboard-response","56","175170","0.0-9.0-1.23","oltrjg","Tue Feb 16 2021 08:52:38 GMT+0100 (Centraleuropæisk normaltid)","2021","2","16","8","52","38","lb11","57","female","left","90","92","90","1","0","","","","","test","happy","fear","h","true"
"null","<div style=""font-size:60px;"">+</div>","null","html-keyboard-response","57","176431","0.0-9.0-0.24","oltrjg","Tue Feb 16 2021 08:52:38 GMT+0100 (Centraleuropæisk normaltid)","2021","2","16","8","52","38","lb11","57","female","left","90","92","90","1","0","","","","","fixation","","","",""
"609.920000002603","img/image_stim_h_stroop.png","72","image-keyboard-response","58","177044","0.0-9.0-1.24","oltrjg","Tue Feb 16 2021 08:52:38 GMT+0100 (Centraleuropæisk normaltid)","2021","2","16","8","52","38","lb11","57","female","left","90","92","90","1","0","","","","","test","happy","fear","h","true"
"null","<div style=""font-size:60px;"">+</div>","null","html-keyboard-response","59","178805","0.0-9.0-0.25","oltrjg","Tue Feb 16 2021 08:52:38 GMT+0100 (Centraleuropæisk normaltid)","2021","2","16","8","52","38","lb11","57","female","left","90","92","90","1","0","","","","","fixation","","","",""
"570.1300000000629","img/image_stim_h.png","72","image-keyboard-response","60","179379","0.0-9.0-1.25","oltrjg","Tue Feb 16 2021 08:52:38 GMT+0100 (Centraleuropæisk normaltid)","2021","2","16","8","52","38","lb11","57","female","left","90","92","90","1","0","","","","","test","happy","happy","h","true"
"null","<div style=""font-size:60px;"">+</div>","null","html-keyboard-response","61","179887","0.0-9.0-0.26","oltrjg","Tue Feb 16 2021 08:52:38 GMT+0100 (Centraleuropæisk normaltid)","2021","2","16","8","52","38","lb11","57","female","left","90","92","90","1","0","","","","","fixation","","","",""
"604.5550000017101","img/image_stim_f_stroop.png","70","image-keyboard-response","62","180494","0.0-9.0-1.26","oltrjg","Tue Feb 16 2021 08:52:38 GMT+0100 (Centraleuropæisk normaltid)","2021","2","16","8","52","38","lb11","57","female","left","90","92","90","1","0","","","","","test","fear","happy","f","true"
"null","<div style=""font-size:60px;"">+</div>","null","html-keyboard-response","63","181265","0.0-9.0-0.27","oltrjg","Tue Feb 16 2021 08:52:38 GMT+0100 (Centraleuropæisk normaltid)","2021","2","16","8","52","38","lb11","57","female","left","90","92","90","1","0","","","","","fixation","","","",""
"568.4650000002875","img/image_stim_f.png","70","image-keyboard-response","64","181836","0.0-9.0-1.27","oltrjg","Tue Feb 16 2021 08:52:38 GMT+0100 (Centraleuropæisk normaltid)","2021","2","16","8","52","38","lb11","57","female","left","90","92","90","1","0","","","","","test","fear","fear","f","true"
"null","<div style=""font-size:60px;"">+</div>","null","html-keyboard-response","65","183604","0.0-9.0-0.28","oltrjg","Tue Feb 16 2021 08:52:38 GMT+0100 (Centraleuropæisk normaltid)","2021","2","16","8","52","38","lb11","57","female","left","90","92","90","1","0","","","","","fixation","","","",""
"768.8799999996263","img/image_stim_f_stroop.png","70","image-keyboard-response","66","184375","0.0-9.0-1.28","oltrjg","Tue Feb 16 2021 08:52:38 GMT+0100 (Centraleuropæisk normaltid)","2021","2","16","8","52","38","lb11","57","female","left","90","92","90","1","0","","","","","test","fear","happy","f","true"
"null","<div style=""font-size:60px;"">+</div>","null","html-keyboard-response","67","185142","0.0-9.0-0.29","oltrjg","Tue Feb 16 2021 08:52:38 GMT+0100 (Centraleuropæisk normaltid)","2021","2","16","8","52","38","lb11","57","female","left","90","92","90","1","0","","","","","fixation","","","",""
"666.3449999978184","img/image_stim_h_stroop.png","72","image-keyboard-response","68","185813","0.0-9.0-1.29","oltrjg","Tue Feb 16 2021 08:52:38 GMT+0100 (Centraleuropæisk normaltid)","2021","2","16","8","52","38","lb11","57","female","left","90","92","90","1","0","","","","","test","happy","fear","h","true"
"null","<div style=""font-size:60px;"">+</div>","null","html-keyboard-response","69","187343","0.0-9.0-0.30","oltrjg","Tue Feb 16 2021 08:52:38 GMT+0100 (Centraleuropæisk normaltid)","2021","2","16","8","52","38","lb11","57","female","left","90","92","90","1","0","","","","","fixation","","","",""
"635.2349999979197","img/image_stim_f.png","70","image-keyboard-response","70","187982","0.0-9.0-1.30","oltrjg","Tue Feb 16 2021 08:52:38 GMT+0100 (Centraleuropæisk normaltid)","2021","2","16","8","52","38","lb11","57","female","left","90","92","90","1","0","","","","","test","fear","fear","f","true"
"null","<div style=""font-size:60px;"">+</div>","null","html-keyboard-response","71","189749","0.0-9.0-0.31","oltrjg","Tue Feb 16 2021 08:52:38 GMT+0100 (Centraleuropæisk normaltid)","2021","2","16","8","52","38","lb11","57","female","left","90","92","90","1","0","","","","","fixation","","","",""
"597.0150000030117","img/image_stim_h.png","72","image-keyboard-response","72","190348","0.0-9.0-1.31","oltrjg","Tue Feb 16 2021 08:52:38 GMT+0100 (Centraleuropæisk normaltid)","2021","2","16","8","52","38","lb11","57","female","left","90","92","90","1","0","","","","","test","happy","happy","h","true"
"null","<div style=""font-size:60px;"">+</div>","null","html-keyboard-response","73","191613","0.0-9.0-0.32","oltrjg","Tue Feb 16 2021 08:52:38 GMT+0100 (Centraleuropæisk normaltid)","2021","2","16","8","52","38","lb11","57","female","left","90","92","90","1","0","","","","","fixation","","","",""
"528.360000000248","img/image_stim_h.png","72","image-keyboard-response","74","192145","0.0-9.0-1.32","oltrjg","Tue Feb 16 2021 08:52:38 GMT+0100 (Centraleuropæisk normaltid)","2021","2","16","8","52","38","lb11","57","female","left","90","92","90","1","0","","","","","test","happy","happy","h","true"
"null","<div style=""font-size:60px;"">+</div>","null","html-keyboard-response","75","192905","0.0-9.0-0.33","oltrjg","Tue Feb 16 2021 08:52:38 GMT+0100 (Centraleuropæisk normaltid)","2021","2","16","8","52","38","lb11","57","female","left","90","92","90","1","0","","","","","fixation","","","",""
"487.8050000006624","img/image_stim_h_stroop.png","72","image-keyboard-response","76","193395","0.0-9.0-1.33","oltrjg","Tue Feb 16 2021 08:52:38 GMT+0100 (Centraleuropæisk normaltid)","2021","2","16","8","52","38","lb11","57","female","left","90","92","90","1","0","","","","","test","happy","fear","h","true"
"null","<div style=""font-size:60px;"">+</div>","null","html-keyboard-response","77","193662","0.0-9.0-0.34","oltrjg","Tue Feb 16 2021 08:52:38 GMT+0100 (Centraleuropæisk normaltid)","2021","2","16","8","52","38","lb11","57","female","left","90","92","90","1","0","","","","","fixation","","","",""
"700.4400000005262","img/image_stim_f_stroop.png","70","image-keyboard-response","78","194365","0.0-9.0-1.34","oltrjg","Tue Feb 16 2021 08:52:38 GMT+0100 (Centraleuropæisk normaltid)","2021","2","16","8","52","38","lb11","57","female","left","90","92","90","1","0","","","","","test","fear","happy","f","true"
"null","<div style=""font-size:60px;"">+</div>","null","html-keyboard-response","79","195129","0.0-9.0-0.35","oltrjg","Tue Feb 16 2021 08:52:38 GMT+0100 (Centraleuropæisk normaltid)","2021","2","16","8","52","38","lb11","57","female","left","90","92","90","1","0","","","","","fixation","","","",""
"485.0000000005821","img/image_stim_f.png","70","image-keyboard-response","80","195617","0.0-9.0-1.35","oltrjg","Tue Feb 16 2021 08:52:38 GMT+0100 (Centraleuropæisk normaltid)","2021","2","16","8","52","38","lb11","57","female","left","90","92","90","1","0","","","","","test","fear","fear","f","true"
