"rt","stimulus","key_press","trial_type","trial_index","time_elapsed","internal_node_id","exp_id","Time","year","month","date","hour","minute","seconds","id","age","Gender","Handedness","mood","fresh","hunger","H_since_Sleep","H_since_Eat","responses","question_order","slider_start","response","test_part","face","word","correct_response","correct"
"5750.294999976177","<p>Welcome to this experiment on daily rhythms and cognition.</p><p>First you will be asked some questions about yourself.</p><p>Then a short experiment will measure your response time.</p><p>Take the test at different times of the day/night.</p><p>The test is anonymous, but comparing your data across time is important.</p><p>Therefore, please make up and remember a personal ID (two letters+ two numbers).</p><p>Use this ID whenever taking the test.</p><p><strong>Press any key to begin.</strong></p>","70","html-keyboard-response","0","5751","0.0-0.0","3486e0","Mon Feb 08 2021 22:18:20 GMT+0100 (Central European Standard Time)","2021","2","8","22","18","20","hh17","15","male","left","83","26","60","16","2","","","","","","","","",""
"7876.9500000053085","","","survey-text","1","13635","0.0-1.0","3486e0","Mon Feb 08 2021 22:18:20 GMT+0100 (Central European Standard Time)","2021","2","8","22","18","20","hh17","15","male","left","83","26","60","16","2","{""Q0"":""hh17""}","","","","","","","",""
"3550.089999975171","","","survey-text","2","17187","0.0-2.0","3486e0","Mon Feb 08 2021 22:18:20 GMT+0100 (Central European Standard Time)","2021","2","8","22","18","20","hh17","15","male","left","83","26","60","16","2","{""Q0"":""15""}","","","","","","","",""
"3119.4350000005215","","","survey-multi-select","3","20309","0.0-3.0","3486e0","Mon Feb 08 2021 22:18:20 GMT+0100 (Central European Standard Time)","2021","2","8","22","18","20","hh17","15","male","left","83","26","60","16","2","{""Gender"":[""male""],""Hand"":[""left""]}","[0,1]","","","","","","",""
"4657.8450000379235","<p>How Sad/Angry or Happy are you right now?</p>","","html-slider-response","4","24968","0.0-4.0","3486e0","Mon Feb 08 2021 22:18:20 GMT+0100 (Central European Standard Time)","2021","2","8","22","18","20","hh17","15","male","left","83","26","60","16","2","","","50","83","","","","",""
"7304.029999999329","<p>How Tired/Sleepy/Distracted or Fresh/Awake/Alert are you right now?</p>","","html-slider-response","5","32273","0.0-5.0","3486e0","Mon Feb 08 2021 22:18:20 GMT+0100 (Central European Standard Time)","2021","2","8","22","18","20","hh17","15","male","left","83","26","60","16","2","","","50","26","","","","",""
"4731.265000009444","<p>How Hungry or Satiated are you right now?</p>","","html-slider-response","6","37005","0.0-6.0","3486e0","Mon Feb 08 2021 22:18:20 GMT+0100 (Central European Standard Time)","2021","2","8","22","18","20","hh17","15","male","left","83","26","60","16","2","","","50","60","","","","",""
"57334.075000020675","","","survey-multi-select","7","94350","0.0-7.0","3486e0","Mon Feb 08 2021 22:18:20 GMT+0100 (Central European Standard Time)","2021","2","8","22","18","20","hh17","15","male","left","83","26","60","16","2","{""Sleep"":[""16""],""Eat"":[""2""]}","[0,1]","","","","","","",""
"5117.279999947641","<p>In this experiment, a face and a word will appear in the center of the screen.</p><p>If the face is <strong>happy</strong>, press the letter <strong>H</strong> with <strong>right</strong> index finger.</p><p>If the face is <strong>fearful</strong>, press the letter <strong>F</strong> with <strong>left</strong> index finger.</p><p><strong>Ignore the written words</strong>. Respond as fast as possible while being correct. </p><div style='width: 900px;'><div style='float: left;'><img src='img/stimuli_stroop_happy.png'></img><p class='small'><strong>Press the H key for happy faces</strong></p></div><div class='float: right;'><img src='img/stimuli_stroop_fear.png'></img><p class='small'><strong>Press the F key for faces with fear</strong></p></div></div><p>If the screen turns blank, press <strong>SPACE</strong></p><p><strong>Press any key to begin.</strong></p>","70","html-keyboard-response","8","99469","0.0-8.0","3486e0","Mon Feb 08 2021 22:18:20 GMT+0100 (Central European Standard Time)","2021","2","8","22","18","20","hh17","15","male","left","83","26","60","16","2","","","","","","","","",""
"null","<div style=""font-size:60px;"">+</div>","null","html-keyboard-response","9","102721","0.0-9.0-0.0","3486e0","Mon Feb 08 2021 22:18:20 GMT+0100 (Central European Standard Time)","2021","2","8","22","18","20","hh17","15","male","left","83","26","60","16","2","","","","","fixation","","","",""
"1280.3200000198558","img/image_stim_f_stroop.png","72","image-keyboard-response","10","104004","0.0-9.0-1.0","3486e0","Mon Feb 08 2021 22:18:20 GMT+0100 (Central European Standard Time)","2021","2","8","22","18","20","hh17","15","male","left","83","26","60","16","2","","","","","test","fear","happy","f","false"
"null","<div style=""font-size:60px;"">+</div>","null","html-keyboard-response","11","105008","0.0-9.0-0.1","3486e0","Mon Feb 08 2021 22:18:20 GMT+0100 (Central European Standard Time)","2021","2","8","22","18","20","hh17","15","male","left","83","26","60","16","2","","","","","fixation","","","",""
"903.6399999749847","img/image_stim_f.png","70","image-keyboard-response","12","105913","0.0-9.0-1.1","3486e0","Mon Feb 08 2021 22:18:20 GMT+0100 (Central European Standard Time)","2021","2","8","22","18","20","hh17","15","male","left","83","26","60","16","2","","","","","test","fear","fear","f","true"
"null","<div style=""font-size:60px;"">+</div>","null","html-keyboard-response","13","106165","0.0-9.0-0.2","3486e0","Mon Feb 08 2021 22:18:20 GMT+0100 (Central European Standard Time)","2021","2","8","22","18","20","hh17","15","male","left","83","26","60","16","2","","","","","fixation","","","",""
"746.7799999867566","img/image_stim_h.png","72","image-keyboard-response","14","106913","0.0-9.0-1.2","3486e0","Mon Feb 08 2021 22:18:20 GMT+0100 (Central European Standard Time)","2021","2","8","22","18","20","hh17","15","male","left","83","26","60","16","2","","","","","test","happy","happy","h","true"
"null","<div style=""font-size:60px;"">+</div>","null","html-keyboard-response","15","107418","0.0-9.0-0.3","3486e0","Mon Feb 08 2021 22:18:20 GMT+0100 (Central European Standard Time)","2021","2","8","22","18","20","hh17","15","male","left","83","26","60","16","2","","","","","fixation","","","",""
"725.5899999872781","img/image_stim_h_stroop.png","70","image-keyboard-response","16","108144","0.0-9.0-1.3","3486e0","Mon Feb 08 2021 22:18:20 GMT+0100 (Central European Standard Time)","2021","2","8","22","18","20","hh17","15","male","left","83","26","60","16","2","","","","","test","happy","fear","h","false"
"null","<div style=""font-size:60px;"">+</div>","null","html-keyboard-response","17","108401","0.0-9.0-0.4","3486e0","Mon Feb 08 2021 22:18:20 GMT+0100 (Central European Standard Time)","2021","2","8","22","18","20","hh17","15","male","left","83","26","60","16","2","","","","","fixation","","","",""
"1407.680000003893","img/image_stim_f_stroop.png","70","image-keyboard-response","18","109810","0.0-9.0-1.4","3486e0","Mon Feb 08 2021 22:18:20 GMT+0100 (Central European Standard Time)","2021","2","8","22","18","20","hh17","15","male","left","83","26","60","16","2","","","","","test","fear","happy","f","true"
"null","<div style=""font-size:60px;"">+</div>","null","html-keyboard-response","19","111067","0.0-9.0-0.5","3486e0","Mon Feb 08 2021 22:18:20 GMT+0100 (Central European Standard Time)","2021","2","8","22","18","20","hh17","15","male","left","83","26","60","16","2","","","","","fixation","","","",""
"709.5100000151433","img/image_stim_h_stroop.png","72","image-keyboard-response","20","111778","0.0-9.0-1.5","3486e0","Mon Feb 08 2021 22:18:20 GMT+0100 (Central European Standard Time)","2021","2","8","22","18","20","hh17","15","male","left","83","26","60","16","2","","","","","test","happy","fear","h","true"
"null","<div style=""font-size:60px;"">+</div>","null","html-keyboard-response","21","113031","0.0-9.0-0.6","3486e0","Mon Feb 08 2021 22:18:20 GMT+0100 (Central European Standard Time)","2021","2","8","22","18","20","hh17","15","male","left","83","26","60","16","2","","","","","fixation","","","",""
"1646.6749999672174","img/image_stim_h.png","72","image-keyboard-response","22","114678","0.0-9.0-1.6","3486e0","Mon Feb 08 2021 22:18:20 GMT+0100 (Central European Standard Time)","2021","2","8","22","18","20","hh17","15","male","left","83","26","60","16","2","","","","","test","happy","happy","h","true"
"null","<div style=""font-size:60px;"">+</div>","null","html-keyboard-response","23","116432","0.0-9.0-0.7","3486e0","Mon Feb 08 2021 22:18:20 GMT+0100 (Central European Standard Time)","2021","2","8","22","18","20","hh17","15","male","left","83","26","60","16","2","","","","","fixation","","","",""
"921.924999973271","img/image_stim_f.png","70","image-keyboard-response","24","117356","0.0-9.0-1.7","3486e0","Mon Feb 08 2021 22:18:20 GMT+0100 (Central European Standard Time)","2021","2","8","22","18","20","hh17","15","male","left","83","26","60","16","2","","","","","test","fear","fear","f","true"
"null","<div style=""font-size:60px;"">+</div>","null","html-keyboard-response","25","118613","0.0-9.0-0.8","3486e0","Mon Feb 08 2021 22:18:20 GMT+0100 (Central European Standard Time)","2021","2","8","22","18","20","hh17","15","male","left","83","26","60","16","2","","","","","fixation","","","",""
"733.6500000092201","img/image_stim_h.png","72","image-keyboard-response","26","119348","0.0-9.0-1.8","3486e0","Mon Feb 08 2021 22:18:20 GMT+0100 (Central European Standard Time)","2021","2","8","22","18","20","hh17","15","male","left","83","26","60","16","2","","","","","test","happy","happy","h","true"
"null","<div style=""font-size:60px;"">+</div>","null","html-keyboard-response","27","120350","0.0-9.0-0.9","3486e0","Mon Feb 08 2021 22:18:20 GMT+0100 (Central European Standard Time)","2021","2","8","22","18","20","hh17","15","male","left","83","26","60","16","2","","","","","fixation","","","",""
"815.5999999726191","img/image_stim_f.png","70","image-keyboard-response","28","121167","0.0-9.0-1.9","3486e0","Mon Feb 08 2021 22:18:20 GMT+0100 (Central European Standard Time)","2021","2","8","22","18","20","hh17","15","male","left","83","26","60","16","2","","","","","test","fear","fear","f","true"
"null","<div style=""font-size:60px;"">+</div>","null","html-keyboard-response","29","122669","0.0-9.0-0.10","3486e0","Mon Feb 08 2021 22:18:20 GMT+0100 (Central European Standard Time)","2021","2","8","22","18","20","hh17","15","male","left","83","26","60","16","2","","","","","fixation","","","",""
"646.645000029821","img/image_stim_h_stroop.png","72","image-keyboard-response","30","123317","0.0-9.0-1.10","3486e0","Mon Feb 08 2021 22:18:20 GMT+0100 (Central European Standard Time)","2021","2","8","22","18","20","hh17","15","male","left","83","26","60","16","2","","","","","test","happy","fear","h","true"
"null","<div style=""font-size:60px;"">+</div>","null","html-keyboard-response","31","124819","0.0-9.0-0.11","3486e0","Mon Feb 08 2021 22:18:20 GMT+0100 (Central European Standard Time)","2021","2","8","22","18","20","hh17","15","male","left","83","26","60","16","2","","","","","fixation","","","",""
"628.4900000318885","img/image_stim_f_stroop.png","70","image-keyboard-response","32","125449","0.0-9.0-1.11","3486e0","Mon Feb 08 2021 22:18:20 GMT+0100 (Central European Standard Time)","2021","2","8","22","18","20","hh17","15","male","left","83","26","60","16","2","","","","","test","fear","happy","f","true"
"null","<div style=""font-size:60px;"">+</div>","null","html-keyboard-response","33","126956","0.0-9.0-0.12","3486e0","Mon Feb 08 2021 22:18:20 GMT+0100 (Central European Standard Time)","2021","2","8","22","18","20","hh17","15","male","left","83","26","60","16","2","","","","","fixation","","","",""
"630.5750000174157","img/image_stim_f.png","70","image-keyboard-response","34","127587","0.0-9.0-1.12","3486e0","Mon Feb 08 2021 22:18:20 GMT+0100 (Central European Standard Time)","2021","2","8","22","18","20","hh17","15","male","left","83","26","60","16","2","","","","","test","fear","fear","f","true"
"null","<div style=""font-size:60px;"">+</div>","null","html-keyboard-response","35","128340","0.0-9.0-0.13","3486e0","Mon Feb 08 2021 22:18:20 GMT+0100 (Central European Standard Time)","2021","2","8","22","18","20","hh17","15","male","left","83","26","60","16","2","","","","","fixation","","","",""
"694.8149999952875","img/image_stim_h_stroop.png","72","image-keyboard-response","36","129036","0.0-9.0-1.13","3486e0","Mon Feb 08 2021 22:18:20 GMT+0100 (Central European Standard Time)","2021","2","8","22","18","20","hh17","15","male","left","83","26","60","16","2","","","","","test","happy","fear","h","true"
"null","<div style=""font-size:60px;"">+</div>","null","html-keyboard-response","37","129288","0.0-9.0-0.14","3486e0","Mon Feb 08 2021 22:18:20 GMT+0100 (Central European Standard Time)","2021","2","8","22","18","20","hh17","15","male","left","83","26","60","16","2","","","","","fixation","","","",""
"704.7449999954551","img/image_stim_f_stroop.png","70","image-keyboard-response","38","129995","0.0-9.0-1.14","3486e0","Mon Feb 08 2021 22:18:20 GMT+0100 (Central European Standard Time)","2021","2","8","22","18","20","hh17","15","male","left","83","26","60","16","2","","","","","test","fear","happy","f","true"
"null","<div style=""font-size:60px;"">+</div>","null","html-keyboard-response","39","131997","0.0-9.0-0.15","3486e0","Mon Feb 08 2021 22:18:20 GMT+0100 (Central European Standard Time)","2021","2","8","22","18","20","hh17","15","male","left","83","26","60","16","2","","","","","fixation","","","",""
"483.29000000376254","img/image_stim_h.png","72","image-keyboard-response","40","132482","0.0-9.0-1.15","3486e0","Mon Feb 08 2021 22:18:20 GMT+0100 (Central European Standard Time)","2021","2","8","22","18","20","hh17","15","male","left","83","26","60","16","2","","","","","test","happy","happy","h","true"
"null","<div style=""font-size:60px;"">+</div>","null","html-keyboard-response","41","133236","0.0-9.0-0.16","3486e0","Mon Feb 08 2021 22:18:20 GMT+0100 (Central European Standard Time)","2021","2","8","22","18","20","hh17","15","male","left","83","26","60","16","2","","","","","fixation","","","",""
"594.1300000413321","img/image_stim_f_stroop.png","70","image-keyboard-response","42","133832","0.0-9.0-1.16","3486e0","Mon Feb 08 2021 22:18:20 GMT+0100 (Central European Standard Time)","2021","2","8","22","18","20","hh17","15","male","left","83","26","60","16","2","","","","","test","fear","happy","f","true"
"null","<div style=""font-size:60px;"">+</div>","null","html-keyboard-response","43","135596","0.0-9.0-0.17","3486e0","Mon Feb 08 2021 22:18:20 GMT+0100 (Central European Standard Time)","2021","2","8","22","18","20","hh17","15","male","left","83","26","60","16","2","","","","","fixation","","","",""
"820.8500000182539","img/image_stim_h_stroop.png","72","image-keyboard-response","44","136418","0.0-9.0-1.17","3486e0","Mon Feb 08 2021 22:18:20 GMT+0100 (Central European Standard Time)","2021","2","8","22","18","20","hh17","15","male","left","83","26","60","16","2","","","","","test","happy","fear","h","true"
"null","<div style=""font-size:60px;"">+</div>","null","html-keyboard-response","45","137673","0.0-9.0-0.18","3486e0","Mon Feb 08 2021 22:18:20 GMT+0100 (Central European Standard Time)","2021","2","8","22","18","20","hh17","15","male","left","83","26","60","16","2","","","","","fixation","","","",""
"652.8500000131316","img/image_stim_f.png","70","image-keyboard-response","46","138327","0.0-9.0-1.18","3486e0","Mon Feb 08 2021 22:18:20 GMT+0100 (Central European Standard Time)","2021","2","8","22","18","20","hh17","15","male","left","83","26","60","16","2","","","","","test","fear","fear","f","true"
"null","<div style=""font-size:60px;"">+</div>","null","html-keyboard-response","47","140338","0.0-9.0-0.19","3486e0","Mon Feb 08 2021 22:18:20 GMT+0100 (Central European Standard Time)","2021","2","8","22","18","20","hh17","15","male","left","83","26","60","16","2","","","","","fixation","","","",""
"607.5800000107847","img/image_stim_h.png","72","image-keyboard-response","48","140947","0.0-9.0-1.19","3486e0","Mon Feb 08 2021 22:18:20 GMT+0100 (Central European Standard Time)","2021","2","8","22","18","20","hh17","15","male","left","83","26","60","16","2","","","","","test","happy","happy","h","true"
"null","<div style=""font-size:60px;"">+</div>","null","html-keyboard-response","49","141949","0.0-9.0-0.20","3486e0","Mon Feb 08 2021 22:18:20 GMT+0100 (Central European Standard Time)","2021","2","8","22","18","20","hh17","15","male","left","83","26","60","16","2","","","","","fixation","","","",""
"444.2949999938719","img/image_stim_f_stroop.png","70","image-keyboard-response","50","142394","0.0-9.0-1.20","3486e0","Mon Feb 08 2021 22:18:20 GMT+0100 (Central European Standard Time)","2021","2","8","22","18","20","hh17","15","male","left","83","26","60","16","2","","","","","test","fear","happy","f","true"
"null","<div style=""font-size:60px;"">+</div>","null","html-keyboard-response","51","142648","0.0-9.0-0.21","3486e0","Mon Feb 08 2021 22:18:20 GMT+0100 (Central European Standard Time)","2021","2","8","22","18","20","hh17","15","male","left","83","26","60","16","2","","","","","fixation","","","",""
"682.6650000293739","img/image_stim_f.png","70","image-keyboard-response","52","143332","0.0-9.0-1.21","3486e0","Mon Feb 08 2021 22:18:20 GMT+0100 (Central European Standard Time)","2021","2","8","22","18","20","hh17","15","male","left","83","26","60","16","2","","","","","test","fear","fear","f","true"
"null","<div style=""font-size:60px;"">+</div>","null","html-keyboard-response","53","143834","0.0-9.0-0.22","3486e0","Mon Feb 08 2021 22:18:20 GMT+0100 (Central European Standard Time)","2021","2","8","22","18","20","hh17","15","male","left","83","26","60","16","2","","","","","fixation","","","",""
"608.2999999634922","img/image_stim_h.png","72","image-keyboard-response","54","144444","0.0-9.0-1.22","3486e0","Mon Feb 08 2021 22:18:20 GMT+0100 (Central European Standard Time)","2021","2","8","22","18","20","hh17","15","male","left","83","26","60","16","2","","","","","test","happy","happy","h","true"
"null","<div style=""font-size:60px;"">+</div>","null","html-keyboard-response","55","145952","0.0-9.0-0.23","3486e0","Mon Feb 08 2021 22:18:20 GMT+0100 (Central European Standard Time)","2021","2","8","22","18","20","hh17","15","male","left","83","26","60","16","2","","","","","fixation","","","",""
"547.5500000175089","img/image_stim_h_stroop.png","72","image-keyboard-response","56","146501","0.0-9.0-1.23","3486e0","Mon Feb 08 2021 22:18:20 GMT+0100 (Central European Standard Time)","2021","2","8","22","18","20","hh17","15","male","left","83","26","60","16","2","","","","","test","happy","fear","h","true"
"null","<div style=""font-size:60px;"">+</div>","null","html-keyboard-response","57","148008","0.0-9.0-0.24","3486e0","Mon Feb 08 2021 22:18:20 GMT+0100 (Central European Standard Time)","2021","2","8","22","18","20","hh17","15","male","left","83","26","60","16","2","","","","","fixation","","","",""
"496.69999995967373","img/image_stim_f_stroop.png","70","image-keyboard-response","58","148506","0.0-9.0-1.24","3486e0","Mon Feb 08 2021 22:18:20 GMT+0100 (Central European Standard Time)","2021","2","8","22","18","20","hh17","15","male","left","83","26","60","16","2","","","","","test","fear","happy","f","true"
"null","<div style=""font-size:60px;"">+</div>","null","html-keyboard-response","59","150014","0.0-9.0-0.25","3486e0","Mon Feb 08 2021 22:18:20 GMT+0100 (Central European Standard Time)","2021","2","8","22","18","20","hh17","15","male","left","83","26","60","16","2","","","","","fixation","","","",""
"554.694999998901","img/image_stim_f.png","70","image-keyboard-response","60","150569","0.0-9.0-1.25","3486e0","Mon Feb 08 2021 22:18:20 GMT+0100 (Central European Standard Time)","2021","2","8","22","18","20","hh17","15","male","left","83","26","60","16","2","","","","","test","fear","fear","f","true"
"null","<div style=""font-size:60px;"">+</div>","null","html-keyboard-response","61","151827","0.0-9.0-0.26","3486e0","Mon Feb 08 2021 22:18:20 GMT+0100 (Central European Standard Time)","2021","2","8","22","18","20","hh17","15","male","left","83","26","60","16","2","","","","","fixation","","","",""
"691.1650000256486","img/image_stim_h.png","72","image-keyboard-response","62","152519","0.0-9.0-1.26","3486e0","Mon Feb 08 2021 22:18:20 GMT+0100 (Central European Standard Time)","2021","2","8","22","18","20","hh17","15","male","left","83","26","60","16","2","","","","","test","happy","happy","h","true"
"null","<div style=""font-size:60px;"">+</div>","null","html-keyboard-response","63","152773","0.0-9.0-0.27","3486e0","Mon Feb 08 2021 22:18:20 GMT+0100 (Central European Standard Time)","2021","2","8","22","18","20","hh17","15","male","left","83","26","60","16","2","","","","","fixation","","","",""
"331.30000001983717","img/image_stim_h_stroop.png","72","image-keyboard-response","64","153106","0.0-9.0-1.27","3486e0","Mon Feb 08 2021 22:18:20 GMT+0100 (Central European Standard Time)","2021","2","8","22","18","20","hh17","15","male","left","83","26","60","16","2","","","","","test","happy","fear","h","true"
"null","<div style=""font-size:60px;"">+</div>","null","html-keyboard-response","65","155111","0.0-9.0-0.28","3486e0","Mon Feb 08 2021 22:18:20 GMT+0100 (Central European Standard Time)","2021","2","8","22","18","20","hh17","15","male","left","83","26","60","16","2","","","","","fixation","","","",""
"380.8500000159256","img/image_stim_f.png","70","image-keyboard-response","66","155492","0.0-9.0-1.28","3486e0","Mon Feb 08 2021 22:18:20 GMT+0100 (Central European Standard Time)","2021","2","8","22","18","20","hh17","15","male","left","83","26","60","16","2","","","","","test","fear","fear","f","true"
"null","<div style=""font-size:60px;"">+</div>","null","html-keyboard-response","67","156499","0.0-9.0-0.29","3486e0","Mon Feb 08 2021 22:18:20 GMT+0100 (Central European Standard Time)","2021","2","8","22","18","20","hh17","15","male","left","83","26","60","16","2","","","","","fixation","","","",""
"827.129999990575","img/image_stim_h_stroop.png","72","image-keyboard-response","68","157327","0.0-9.0-1.29","3486e0","Mon Feb 08 2021 22:18:20 GMT+0100 (Central European Standard Time)","2021","2","8","22","18","20","hh17","15","male","left","83","26","60","16","2","","","","","test","happy","fear","h","true"
"null","<div style=""font-size:60px;"">+</div>","null","html-keyboard-response","69","159341","0.0-9.0-0.30","3486e0","Mon Feb 08 2021 22:18:20 GMT+0100 (Central European Standard Time)","2021","2","8","22","18","20","hh17","15","male","left","83","26","60","16","2","","","","","fixation","","","",""
"734.5299999578856","img/image_stim_f_stroop.png","70","image-keyboard-response","70","160077","0.0-9.0-1.30","3486e0","Mon Feb 08 2021 22:18:20 GMT+0100 (Central European Standard Time)","2021","2","8","22","18","20","hh17","15","male","left","83","26","60","16","2","","","","","test","fear","happy","f","true"
"null","<div style=""font-size:60px;"">+</div>","null","html-keyboard-response","71","160580","0.0-9.0-0.31","3486e0","Mon Feb 08 2021 22:18:20 GMT+0100 (Central European Standard Time)","2021","2","8","22","18","20","hh17","15","male","left","83","26","60","16","2","","","","","fixation","","","",""
"605.4000000003725","img/image_stim_h.png","72","image-keyboard-response","72","161186","0.0-9.0-1.31","3486e0","Mon Feb 08 2021 22:18:20 GMT+0100 (Central European Standard Time)","2021","2","8","22","18","20","hh17","15","male","left","83","26","60","16","2","","","","","test","happy","happy","h","true"
"null","<div style=""font-size:60px;"">+</div>","null","html-keyboard-response","73","162691","0.0-9.0-0.32","3486e0","Mon Feb 08 2021 22:18:20 GMT+0100 (Central European Standard Time)","2021","2","8","22","18","20","hh17","15","male","left","83","26","60","16","2","","","","","fixation","","","",""
"599.274999985937","img/image_stim_f_stroop.png","70","image-keyboard-response","74","163291","0.0-9.0-1.32","3486e0","Mon Feb 08 2021 22:18:20 GMT+0100 (Central European Standard Time)","2021","2","8","22","18","20","hh17","15","male","left","83","26","60","16","2","","","","","test","fear","happy","f","true"
"null","<div style=""font-size:60px;"">+</div>","null","html-keyboard-response","75","165049","0.0-9.0-0.33","3486e0","Mon Feb 08 2021 22:18:20 GMT+0100 (Central European Standard Time)","2021","2","8","22","18","20","hh17","15","male","left","83","26","60","16","2","","","","","fixation","","","",""
"503.7649999721907","img/image_stim_f.png","70","image-keyboard-response","76","165554","0.0-9.0-1.33","3486e0","Mon Feb 08 2021 22:18:20 GMT+0100 (Central European Standard Time)","2021","2","8","22","18","20","hh17","15","male","left","83","26","60","16","2","","","","","test","fear","fear","f","true"
"null","<div style=""font-size:60px;"">+</div>","null","html-keyboard-response","77","166558","0.0-9.0-0.34","3486e0","Mon Feb 08 2021 22:18:20 GMT+0100 (Central European Standard Time)","2021","2","8","22","18","20","hh17","15","male","left","83","26","60","16","2","","","","","fixation","","","",""
"438.3149999775924","img/image_stim_h_stroop.png","72","image-keyboard-response","78","166997","0.0-9.0-1.34","3486e0","Mon Feb 08 2021 22:18:20 GMT+0100 (Central European Standard Time)","2021","2","8","22","18","20","hh17","15","male","left","83","26","60","16","2","","","","","test","happy","fear","h","true"
"null","<div style=""font-size:60px;"">+</div>","null","html-keyboard-response","79","167501","0.0-9.0-0.35","3486e0","Mon Feb 08 2021 22:18:20 GMT+0100 (Central European Standard Time)","2021","2","8","22","18","20","hh17","15","male","left","83","26","60","16","2","","","","","fixation","","","",""
"426.3500000233762","img/image_stim_h.png","72","image-keyboard-response","80","167929","0.0-9.0-1.35","3486e0","Mon Feb 08 2021 22:18:20 GMT+0100 (Central European Standard Time)","2021","2","8","22","18","20","hh17","15","male","left","83","26","60","16","2","","","","","test","happy","happy","h","true"
