"rt","stimulus","key_press","trial_type","trial_index","time_elapsed","internal_node_id","exp_id","Time","year","month","date","hour","minute","seconds","id","age","Gender","Handedness","mood","fresh","hunger","H_since_Sleep","H_since_Eat","responses","question_order","slider_start","response","test_part","face","word","correct_response","correct"
"1119.1000000238419","<p>Welcome to this experiment on daily rhythms and cognition.</p><p>First you will be asked some questions about yourself.</p><p>Then a short experiment will measure your response time.</p><p>Take the test at different times of the day/night.</p><p>The test is anonymous, but comparing your data across time is important.</p><p>Therefore, please make up and remember a personal ID (two letters+ two numbers).</p><p>Use this ID whenever taking the test.</p><p><strong>Press any key to begin.</strong></p>","32","html-keyboard-response","0","1121","0.0-0.0","n7hpuw","Tue Feb 08 2022 11:05:11 GMT+0100 (Central European Standard Time)","2022","2","8","11","5","11","ga02","19","female","left","100","39","100","3","0","","","","","","","","",""
"4726.100000023842","","","survey-text","1","5853","0.0-1.0","n7hpuw","Tue Feb 08 2022 11:05:11 GMT+0100 (Central European Standard Time)","2022","2","8","11","5","11","ga02","19","female","left","100","39","100","3","0","{""Q0"":""ga02""}","","","","","","","",""
"2734","","","survey-text","2","8590","0.0-2.0","n7hpuw","Tue Feb 08 2022 11:05:11 GMT+0100 (Central European Standard Time)","2022","2","8","11","5","11","ga02","19","female","left","100","39","100","3","0","{""Q0"":""19""}","","","","","","","",""
"8493.399999976158","","","survey-multi-select","3","17088","0.0-3.0","n7hpuw","Tue Feb 08 2022 11:05:11 GMT+0100 (Central European Standard Time)","2022","2","8","11","5","11","ga02","19","female","left","100","39","100","3","0","{""Gender"":[""female""],""Hand"":[""left""]}","[0,1]","","","","","","",""
"8241.600000023842","<p>How Sad/Angry or Happy are you right now?</p>","","html-slider-response","4","25333","0.0-4.0","n7hpuw","Tue Feb 08 2022 11:05:11 GMT+0100 (Central European Standard Time)","2022","2","8","11","5","11","ga02","19","female","left","100","39","100","3","0","","","50","100","","","","",""
"5643.899999976158","<p>How Tired/Sleepy/Distracted or Fresh/Awake/Alert are you right now?</p>","","html-slider-response","5","30978","0.0-5.0","n7hpuw","Tue Feb 08 2022 11:05:11 GMT+0100 (Central European Standard Time)","2022","2","8","11","5","11","ga02","19","female","left","100","39","100","3","0","","","50","39","","","","",""
"15198.799999952316","<p>How Hungry or Satiated are you right now?</p>","","html-slider-response","6","46178","0.0-6.0","n7hpuw","Tue Feb 08 2022 11:05:11 GMT+0100 (Central European Standard Time)","2022","2","8","11","5","11","ga02","19","female","left","100","39","100","3","0","","","50","100","","","","",""
"10287","","","survey-multi-select","7","56479","0.0-7.0","n7hpuw","Tue Feb 08 2022 11:05:11 GMT+0100 (Central European Standard Time)","2022","2","8","11","5","11","ga02","19","female","left","100","39","100","3","0","{""Sleep"":[""3""],""Eat"":[""0""]}","[0,1]","","","","","","",""
"5115.900000095367","<p>In this experiment, a face and a word will appear in the center of the screen.</p><p>If the face is <strong>happy</strong>, press the letter <strong>H</strong> with <strong>right</strong> index finger.</p><p>If the face is <strong>fearful</strong>, press the letter <strong>F</strong> with <strong>left</strong> index finger.</p><p><strong>Ignore the written words</strong>. Respond as fast as possible while being correct. </p><div style='width: 900px;'><div style='float: left;'><img src='img/stimuli_stroop_happy.png'></img><p class='small'><strong>Press the H key for happy faces</strong></p></div><div class='float: right;'><img src='img/stimuli_stroop_fear.png'></img><p class='small'><strong>Press the F key for faces with fear</strong></p></div></div><p>If the screen turns blank, press <strong>SPACE</strong></p><p><strong>Press any key to begin.</strong></p>","32","html-keyboard-response","8","61600","0.0-8.0","n7hpuw","Tue Feb 08 2022 11:05:11 GMT+0100 (Central European Standard Time)","2022","2","8","11","5","11","ga02","19","female","left","100","39","100","3","0","","","","","","","","",""
"null","<div style=""font-size:60px;"">+</div>","null","html-keyboard-response","9","63853","0.0-9.0-0.0","n7hpuw","Tue Feb 08 2022 11:05:11 GMT+0100 (Central European Standard Time)","2022","2","8","11","5","11","ga02","19","female","left","100","39","100","3","0","","","","","fixation","","","",""
"497.60000002384186","img/image_stim_f_stroop.png","70","image-keyboard-response","10","64359","0.0-9.0-1.0","n7hpuw","Tue Feb 08 2022 11:05:11 GMT+0100 (Central European Standard Time)","2022","2","8","11","5","11","ga02","19","female","left","100","39","100","3","0","","","","","test","fear","happy","f","true"
"null","<div style=""font-size:60px;"">+</div>","null","html-keyboard-response","11","64863","0.0-9.0-0.1","n7hpuw","Tue Feb 08 2022 11:05:11 GMT+0100 (Central European Standard Time)","2022","2","8","11","5","11","ga02","19","female","left","100","39","100","3","0","","","","","fixation","","","",""
"403.2000000476837","img/image_stim_h.png","72","image-keyboard-response","12","65267","0.0-9.0-1.1","n7hpuw","Tue Feb 08 2022 11:05:11 GMT+0100 (Central European Standard Time)","2022","2","8","11","5","11","ga02","19","female","left","100","39","100","3","0","","","","","test","happy","happy","h","true"
"null","<div style=""font-size:60px;"">+</div>","null","html-keyboard-response","13","67270","0.0-9.0-0.2","n7hpuw","Tue Feb 08 2022 11:05:11 GMT+0100 (Central European Standard Time)","2022","2","8","11","5","11","ga02","19","female","left","100","39","100","3","0","","","","","fixation","","","",""
"352.7000000476837","img/image_stim_f.png","70","image-keyboard-response","14","67624","0.0-9.0-1.2","n7hpuw","Tue Feb 08 2022 11:05:11 GMT+0100 (Central European Standard Time)","2022","2","8","11","5","11","ga02","19","female","left","100","39","100","3","0","","","","","test","fear","fear","f","true"
"null","<div style=""font-size:60px;"">+</div>","null","html-keyboard-response","15","69630","0.0-9.0-0.3","n7hpuw","Tue Feb 08 2022 11:05:11 GMT+0100 (Central European Standard Time)","2022","2","8","11","5","11","ga02","19","female","left","100","39","100","3","0","","","","","fixation","","","",""
"330.8000000715256","img/image_stim_h_stroop.png","72","image-keyboard-response","16","69962","0.0-9.0-1.3","n7hpuw","Tue Feb 08 2022 11:05:11 GMT+0100 (Central European Standard Time)","2022","2","8","11","5","11","ga02","19","female","left","100","39","100","3","0","","","","","test","happy","fear","h","true"
"null","<div style=""font-size:60px;"">+</div>","null","html-keyboard-response","17","70216","0.0-9.0-0.4","n7hpuw","Tue Feb 08 2022 11:05:11 GMT+0100 (Central European Standard Time)","2022","2","8","11","5","11","ga02","19","female","left","100","39","100","3","0","","","","","fixation","","","",""
"476.6999999284744","img/image_stim_f_stroop.png","70","image-keyboard-response","18","70694","0.0-9.0-1.4","n7hpuw","Tue Feb 08 2022 11:05:11 GMT+0100 (Central European Standard Time)","2022","2","8","11","5","11","ga02","19","female","left","100","39","100","3","0","","","","","test","fear","happy","f","true"
"null","<div style=""font-size:60px;"">+</div>","null","html-keyboard-response","19","72697","0.0-9.0-0.5","n7hpuw","Tue Feb 08 2022 11:05:11 GMT+0100 (Central European Standard Time)","2022","2","8","11","5","11","ga02","19","female","left","100","39","100","3","0","","","","","fixation","","","",""
"444.1999999284744","img/image_stim_h.png","72","image-keyboard-response","20","73142","0.0-9.0-1.5","n7hpuw","Tue Feb 08 2022 11:05:11 GMT+0100 (Central European Standard Time)","2022","2","8","11","5","11","ga02","19","female","left","100","39","100","3","0","","","","","test","happy","happy","h","true"
"null","<div style=""font-size:60px;"">+</div>","null","html-keyboard-response","21","74147","0.0-9.0-0.6","n7hpuw","Tue Feb 08 2022 11:05:11 GMT+0100 (Central European Standard Time)","2022","2","8","11","5","11","ga02","19","female","left","100","39","100","3","0","","","","","fixation","","","",""
"376.7000000476837","img/image_stim_f.png","70","image-keyboard-response","22","74525","0.0-9.0-1.6","n7hpuw","Tue Feb 08 2022 11:05:11 GMT+0100 (Central European Standard Time)","2022","2","8","11","5","11","ga02","19","female","left","100","39","100","3","0","","","","","test","fear","fear","f","true"
"null","<div style=""font-size:60px;"">+</div>","null","html-keyboard-response","23","76281","0.0-9.0-0.7","n7hpuw","Tue Feb 08 2022 11:05:11 GMT+0100 (Central European Standard Time)","2022","2","8","11","5","11","ga02","19","female","left","100","39","100","3","0","","","","","fixation","","","",""
"373.89999997615814","img/image_stim_h_stroop.png","72","image-keyboard-response","24","76656","0.0-9.0-1.7","n7hpuw","Tue Feb 08 2022 11:05:11 GMT+0100 (Central European Standard Time)","2022","2","8","11","5","11","ga02","19","female","left","100","39","100","3","0","","","","","test","happy","fear","h","true"
"null","<div style=""font-size:60px;"">+</div>","null","html-keyboard-response","25","77659","0.0-9.0-0.8","n7hpuw","Tue Feb 08 2022 11:05:11 GMT+0100 (Central European Standard Time)","2022","2","8","11","5","11","ga02","19","female","left","100","39","100","3","0","","","","","fixation","","","",""
"394.39999997615814","img/image_stim_h_stroop.png","72","image-keyboard-response","26","78055","0.0-9.0-1.8","n7hpuw","Tue Feb 08 2022 11:05:11 GMT+0100 (Central European Standard Time)","2022","2","8","11","5","11","ga02","19","female","left","100","39","100","3","0","","","","","test","happy","fear","h","true"
"null","<div style=""font-size:60px;"">+</div>","null","html-keyboard-response","27","78809","0.0-9.0-0.9","n7hpuw","Tue Feb 08 2022 11:05:11 GMT+0100 (Central European Standard Time)","2022","2","8","11","5","11","ga02","19","female","left","100","39","100","3","0","","","","","fixation","","","",""
"369.89999997615814","img/image_stim_f_stroop.png","70","image-keyboard-response","28","79181","0.0-9.0-1.9","n7hpuw","Tue Feb 08 2022 11:05:11 GMT+0100 (Central European Standard Time)","2022","2","8","11","5","11","ga02","19","female","left","100","39","100","3","0","","","","","test","fear","happy","f","true"
"null","<div style=""font-size:60px;"">+</div>","null","html-keyboard-response","29","80184","0.0-9.0-0.10","n7hpuw","Tue Feb 08 2022 11:05:11 GMT+0100 (Central European Standard Time)","2022","2","8","11","5","11","ga02","19","female","left","100","39","100","3","0","","","","","fixation","","","",""
"387.2999999523163","img/image_stim_f.png","70","image-keyboard-response","30","80573","0.0-9.0-1.10","n7hpuw","Tue Feb 08 2022 11:05:11 GMT+0100 (Central European Standard Time)","2022","2","8","11","5","11","ga02","19","female","left","100","39","100","3","0","","","","","test","fear","fear","f","true"
"null","<div style=""font-size:60px;"">+</div>","null","html-keyboard-response","31","81826","0.0-9.0-0.11","n7hpuw","Tue Feb 08 2022 11:05:11 GMT+0100 (Central European Standard Time)","2022","2","8","11","5","11","ga02","19","female","left","100","39","100","3","0","","","","","fixation","","","",""
"362.2000000476837","img/image_stim_h.png","72","image-keyboard-response","32","82189","0.0-9.0-1.11","n7hpuw","Tue Feb 08 2022 11:05:11 GMT+0100 (Central European Standard Time)","2022","2","8","11","5","11","ga02","19","female","left","100","39","100","3","0","","","","","test","happy","happy","h","true"
"null","<div style=""font-size:60px;"">+</div>","null","html-keyboard-response","33","82693","0.0-9.0-0.12","n7hpuw","Tue Feb 08 2022 11:05:11 GMT+0100 (Central European Standard Time)","2022","2","8","11","5","11","ga02","19","female","left","100","39","100","3","0","","","","","fixation","","","",""
"392.10000002384186","img/image_stim_f_stroop.png","70","image-keyboard-response","34","83087","0.0-9.0-1.12","n7hpuw","Tue Feb 08 2022 11:05:11 GMT+0100 (Central European Standard Time)","2022","2","8","11","5","11","ga02","19","female","left","100","39","100","3","0","","","","","test","fear","happy","f","true"
"null","<div style=""font-size:60px;"">+</div>","null","html-keyboard-response","35","84090","0.0-9.0-0.13","n7hpuw","Tue Feb 08 2022 11:05:11 GMT+0100 (Central European Standard Time)","2022","2","8","11","5","11","ga02","19","female","left","100","39","100","3","0","","","","","fixation","","","",""
"342.8000000715256","img/image_stim_f.png","70","image-keyboard-response","36","84434","0.0-9.0-1.13","n7hpuw","Tue Feb 08 2022 11:05:11 GMT+0100 (Central European Standard Time)","2022","2","8","11","5","11","ga02","19","female","left","100","39","100","3","0","","","","","test","fear","fear","f","true"
"null","<div style=""font-size:60px;"">+</div>","null","html-keyboard-response","37","84937","0.0-9.0-0.14","n7hpuw","Tue Feb 08 2022 11:05:11 GMT+0100 (Central European Standard Time)","2022","2","8","11","5","11","ga02","19","female","left","100","39","100","3","0","","","","","fixation","","","",""
"406.2000000476837","img/image_stim_h_stroop.png","72","image-keyboard-response","38","85344","0.0-9.0-1.14","n7hpuw","Tue Feb 08 2022 11:05:11 GMT+0100 (Central European Standard Time)","2022","2","8","11","5","11","ga02","19","female","left","100","39","100","3","0","","","","","test","happy","fear","h","true"
"null","<div style=""font-size:60px;"">+</div>","null","html-keyboard-response","39","86599","0.0-9.0-0.15","n7hpuw","Tue Feb 08 2022 11:05:11 GMT+0100 (Central European Standard Time)","2022","2","8","11","5","11","ga02","19","female","left","100","39","100","3","0","","","","","fixation","","","",""
"379.7000000476837","img/image_stim_h.png","72","image-keyboard-response","40","86980","0.0-9.0-1.15","n7hpuw","Tue Feb 08 2022 11:05:11 GMT+0100 (Central European Standard Time)","2022","2","8","11","5","11","ga02","19","female","left","100","39","100","3","0","","","","","test","happy","happy","h","true"
"null","<div style=""font-size:60px;"">+</div>","null","html-keyboard-response","41","87483","0.0-9.0-0.16","n7hpuw","Tue Feb 08 2022 11:05:11 GMT+0100 (Central European Standard Time)","2022","2","8","11","5","11","ga02","19","female","left","100","39","100","3","0","","","","","fixation","","","",""
"438.5","img/image_stim_f_stroop.png","70","image-keyboard-response","42","87923","0.0-9.0-1.16","n7hpuw","Tue Feb 08 2022 11:05:11 GMT+0100 (Central European Standard Time)","2022","2","8","11","5","11","ga02","19","female","left","100","39","100","3","0","","","","","test","fear","happy","f","true"
"null","<div style=""font-size:60px;"">+</div>","null","html-keyboard-response","43","89177","0.0-9.0-0.17","n7hpuw","Tue Feb 08 2022 11:05:11 GMT+0100 (Central European Standard Time)","2022","2","8","11","5","11","ga02","19","female","left","100","39","100","3","0","","","","","fixation","","","",""
"430.3000000715256","img/image_stim_h_stroop.png","72","image-keyboard-response","44","89608","0.0-9.0-1.17","n7hpuw","Tue Feb 08 2022 11:05:11 GMT+0100 (Central European Standard Time)","2022","2","8","11","5","11","ga02","19","female","left","100","39","100","3","0","","","","","test","happy","fear","h","true"
"null","<div style=""font-size:60px;"">+</div>","null","html-keyboard-response","45","90611","0.0-9.0-0.18","n7hpuw","Tue Feb 08 2022 11:05:11 GMT+0100 (Central European Standard Time)","2022","2","8","11","5","11","ga02","19","female","left","100","39","100","3","0","","","","","fixation","","","",""
"390.40000009536743","img/image_stim_h.png","72","image-keyboard-response","46","91002","0.0-9.0-1.18","n7hpuw","Tue Feb 08 2022 11:05:11 GMT+0100 (Central European Standard Time)","2022","2","8","11","5","11","ga02","19","female","left","100","39","100","3","0","","","","","test","happy","happy","h","true"
"null","<div style=""font-size:60px;"">+</div>","null","html-keyboard-response","47","91756","0.0-9.0-0.19","n7hpuw","Tue Feb 08 2022 11:05:11 GMT+0100 (Central European Standard Time)","2022","2","8","11","5","11","ga02","19","female","left","100","39","100","3","0","","","","","fixation","","","",""
"370.60000002384186","img/image_stim_f.png","70","image-keyboard-response","48","92128","0.0-9.0-1.19","n7hpuw","Tue Feb 08 2022 11:05:11 GMT+0100 (Central European Standard Time)","2022","2","8","11","5","11","ga02","19","female","left","100","39","100","3","0","","","","","test","fear","fear","f","true"
"null","<div style=""font-size:60px;"">+</div>","null","html-keyboard-response","49","93132","0.0-9.0-0.20","n7hpuw","Tue Feb 08 2022 11:05:11 GMT+0100 (Central European Standard Time)","2022","2","8","11","5","11","ga02","19","female","left","100","39","100","3","0","","","","","fixation","","","",""
"443.5","img/image_stim_f_stroop.png","70","image-keyboard-response","50","93577","0.0-9.0-1.20","n7hpuw","Tue Feb 08 2022 11:05:11 GMT+0100 (Central European Standard Time)","2022","2","8","11","5","11","ga02","19","female","left","100","39","100","3","0","","","","","test","fear","happy","f","true"
"null","<div style=""font-size:60px;"">+</div>","null","html-keyboard-response","51","94081","0.0-9.0-0.21","n7hpuw","Tue Feb 08 2022 11:05:11 GMT+0100 (Central European Standard Time)","2022","2","8","11","5","11","ga02","19","female","left","100","39","100","3","0","","","","","fixation","","","",""
"550.2999999523163","img/image_stim_f.png","70","image-keyboard-response","52","94632","0.0-9.0-1.21","n7hpuw","Tue Feb 08 2022 11:05:11 GMT+0100 (Central European Standard Time)","2022","2","8","11","5","11","ga02","19","female","left","100","39","100","3","0","","","","","test","fear","fear","f","true"
"null","<div style=""font-size:60px;"">+</div>","null","html-keyboard-response","53","94887","0.0-9.0-0.22","n7hpuw","Tue Feb 08 2022 11:05:11 GMT+0100 (Central European Standard Time)","2022","2","8","11","5","11","ga02","19","female","left","100","39","100","3","0","","","","","fixation","","","",""
"411.2999999523163","img/image_stim_h_stroop.png","72","image-keyboard-response","54","95300","0.0-9.0-1.22","n7hpuw","Tue Feb 08 2022 11:05:11 GMT+0100 (Central European Standard Time)","2022","2","8","11","5","11","ga02","19","female","left","100","39","100","3","0","","","","","test","happy","fear","h","true"
"null","<div style=""font-size:60px;"">+</div>","null","html-keyboard-response","55","95554","0.0-9.0-0.23","n7hpuw","Tue Feb 08 2022 11:05:11 GMT+0100 (Central European Standard Time)","2022","2","8","11","5","11","ga02","19","female","left","100","39","100","3","0","","","","","fixation","","","",""
"349.2999999523163","img/image_stim_h.png","72","image-keyboard-response","56","95904","0.0-9.0-1.23","n7hpuw","Tue Feb 08 2022 11:05:11 GMT+0100 (Central European Standard Time)","2022","2","8","11","5","11","ga02","19","female","left","100","39","100","3","0","","","","","test","happy","happy","h","true"
"null","<div style=""font-size:60px;"">+</div>","null","html-keyboard-response","57","97409","0.0-9.0-0.24","n7hpuw","Tue Feb 08 2022 11:05:11 GMT+0100 (Central European Standard Time)","2022","2","8","11","5","11","ga02","19","female","left","100","39","100","3","0","","","","","fixation","","","",""
"423.3000000715256","img/image_stim_f_stroop.png","70","image-keyboard-response","58","97833","0.0-9.0-1.24","n7hpuw","Tue Feb 08 2022 11:05:11 GMT+0100 (Central European Standard Time)","2022","2","8","11","5","11","ga02","19","female","left","100","39","100","3","0","","","","","test","fear","happy","f","true"
"null","<div style=""font-size:60px;"">+</div>","null","html-keyboard-response","59","99588","0.0-9.0-0.25","n7hpuw","Tue Feb 08 2022 11:05:11 GMT+0100 (Central European Standard Time)","2022","2","8","11","5","11","ga02","19","female","left","100","39","100","3","0","","","","","fixation","","","",""
"378.7000000476837","img/image_stim_h_stroop.png","72","image-keyboard-response","60","99968","0.0-9.0-1.25","n7hpuw","Tue Feb 08 2022 11:05:11 GMT+0100 (Central European Standard Time)","2022","2","8","11","5","11","ga02","19","female","left","100","39","100","3","0","","","","","test","happy","fear","h","true"
"null","<div style=""font-size:60px;"">+</div>","null","html-keyboard-response","61","101472","0.0-9.0-0.26","n7hpuw","Tue Feb 08 2022 11:05:11 GMT+0100 (Central European Standard Time)","2022","2","8","11","5","11","ga02","19","female","left","100","39","100","3","0","","","","","fixation","","","",""
"438.7000000476837","img/image_stim_h.png","72","image-keyboard-response","62","101912","0.0-9.0-1.26","n7hpuw","Tue Feb 08 2022 11:05:11 GMT+0100 (Central European Standard Time)","2022","2","8","11","5","11","ga02","19","female","left","100","39","100","3","0","","","","","test","happy","happy","h","true"
"null","<div style=""font-size:60px;"">+</div>","null","html-keyboard-response","63","103416","0.0-9.0-0.27","n7hpuw","Tue Feb 08 2022 11:05:11 GMT+0100 (Central European Standard Time)","2022","2","8","11","5","11","ga02","19","female","left","100","39","100","3","0","","","","","fixation","","","",""
"427.10000002384186","img/image_stim_f.png","70","image-keyboard-response","64","103845","0.0-9.0-1.27","n7hpuw","Tue Feb 08 2022 11:05:11 GMT+0100 (Central European Standard Time)","2022","2","8","11","5","11","ga02","19","female","left","100","39","100","3","0","","","","","test","fear","fear","f","true"
"null","<div style=""font-size:60px;"">+</div>","null","html-keyboard-response","65","104599","0.0-9.0-0.28","n7hpuw","Tue Feb 08 2022 11:05:11 GMT+0100 (Central European Standard Time)","2022","2","8","11","5","11","ga02","19","female","left","100","39","100","3","0","","","","","fixation","","","",""
"425.5","img/image_stim_h.png","72","image-keyboard-response","66","105026","0.0-9.0-1.28","n7hpuw","Tue Feb 08 2022 11:05:11 GMT+0100 (Central European Standard Time)","2022","2","8","11","5","11","ga02","19","female","left","100","39","100","3","0","","","","","test","happy","happy","h","true"
"null","<div style=""font-size:60px;"">+</div>","null","html-keyboard-response","67","106031","0.0-9.0-0.29","n7hpuw","Tue Feb 08 2022 11:05:11 GMT+0100 (Central European Standard Time)","2022","2","8","11","5","11","ga02","19","female","left","100","39","100","3","0","","","","","fixation","","","",""
"483.39999997615814","img/image_stim_f_stroop.png","70","image-keyboard-response","68","106515","0.0-9.0-1.29","n7hpuw","Tue Feb 08 2022 11:05:11 GMT+0100 (Central European Standard Time)","2022","2","8","11","5","11","ga02","19","female","left","100","39","100","3","0","","","","","test","fear","happy","f","true"
"null","<div style=""font-size:60px;"">+</div>","null","html-keyboard-response","69","106769","0.0-9.0-0.30","n7hpuw","Tue Feb 08 2022 11:05:11 GMT+0100 (Central European Standard Time)","2022","2","8","11","5","11","ga02","19","female","left","100","39","100","3","0","","","","","fixation","","","",""
"451.8000000715256","img/image_stim_h_stroop.png","72","image-keyboard-response","70","107222","0.0-9.0-1.30","n7hpuw","Tue Feb 08 2022 11:05:11 GMT+0100 (Central European Standard Time)","2022","2","8","11","5","11","ga02","19","female","left","100","39","100","3","0","","","","","test","happy","fear","h","true"
"null","<div style=""font-size:60px;"">+</div>","null","html-keyboard-response","71","108478","0.0-9.0-0.31","n7hpuw","Tue Feb 08 2022 11:05:11 GMT+0100 (Central European Standard Time)","2022","2","8","11","5","11","ga02","19","female","left","100","39","100","3","0","","","","","fixation","","","",""
"461.7999999523163","img/image_stim_f.png","70","image-keyboard-response","72","108941","0.0-9.0-1.31","n7hpuw","Tue Feb 08 2022 11:05:11 GMT+0100 (Central European Standard Time)","2022","2","8","11","5","11","ga02","19","female","left","100","39","100","3","0","","","","","test","fear","fear","f","true"
"null","<div style=""font-size:60px;"">+</div>","null","html-keyboard-response","73","109445","0.0-9.0-0.32","n7hpuw","Tue Feb 08 2022 11:05:11 GMT+0100 (Central European Standard Time)","2022","2","8","11","5","11","ga02","19","female","left","100","39","100","3","0","","","","","fixation","","","",""
"431.8000000715256","img/image_stim_f_stroop.png","70","image-keyboard-response","74","109878","0.0-9.0-1.32","n7hpuw","Tue Feb 08 2022 11:05:11 GMT+0100 (Central European Standard Time)","2022","2","8","11","5","11","ga02","19","female","left","100","39","100","3","0","","","","","test","fear","happy","f","true"
"null","<div style=""font-size:60px;"">+</div>","null","html-keyboard-response","75","110384","0.0-9.0-0.33","n7hpuw","Tue Feb 08 2022 11:05:11 GMT+0100 (Central European Standard Time)","2022","2","8","11","5","11","ga02","19","female","left","100","39","100","3","0","","","","","fixation","","","",""
"422.5","img/image_stim_h.png","72","image-keyboard-response","76","110808","0.0-9.0-1.33","n7hpuw","Tue Feb 08 2022 11:05:11 GMT+0100 (Central European Standard Time)","2022","2","8","11","5","11","ga02","19","female","left","100","39","100","3","0","","","","","test","happy","happy","h","true"
"null","<div style=""font-size:60px;"">+</div>","null","html-keyboard-response","77","111563","0.0-9.0-0.34","n7hpuw","Tue Feb 08 2022 11:05:11 GMT+0100 (Central European Standard Time)","2022","2","8","11","5","11","ga02","19","female","left","100","39","100","3","0","","","","","fixation","","","",""
"429.39999997615814","img/image_stim_h_stroop.png","72","image-keyboard-response","78","111994","0.0-9.0-1.34","n7hpuw","Tue Feb 08 2022 11:05:11 GMT+0100 (Central European Standard Time)","2022","2","8","11","5","11","ga02","19","female","left","100","39","100","3","0","","","","","test","happy","fear","h","true"
"null","<div style=""font-size:60px;"">+</div>","null","html-keyboard-response","79","113999","0.0-9.0-0.35","n7hpuw","Tue Feb 08 2022 11:05:11 GMT+0100 (Central European Standard Time)","2022","2","8","11","5","11","ga02","19","female","left","100","39","100","3","0","","","","","fixation","","","",""
"466.2000000476837","img/image_stim_f.png","70","image-keyboard-response","80","114466","0.0-9.0-1.35","n7hpuw","Tue Feb 08 2022 11:05:11 GMT+0100 (Central European Standard Time)","2022","2","8","11","5","11","ga02","19","female","left","100","39","100","3","0","","","","","test","fear","fear","f","true"
