"rt","stimulus","key_press","trial_type","trial_index","time_elapsed","internal_node_id","exp_id","Time","year","month","date","hour","minute","seconds","id","age","Gender","Handedness","mood","fresh","hunger","H_since_Sleep","H_since_Eat","responses","question_order","slider_start","response","test_part","face","word","correct_response","correct"
"1116","<p>Welcome to this experiment on daily rhythms and cognition.</p><p>First you will be asked some questions about yourself.</p><p>Then a short experiment will measure your response time.</p><p>Take the test at different times of the day/night.</p><p>The test is anonymous, but comparing your data across time is important.</p><p>Therefore, please make up and remember a personal ID (two letters+ two numbers).</p><p>Use this ID whenever taking the test.</p><p><strong>Press any key to begin.</strong></p>","32","html-keyboard-response","0","1120","0.0-0.0","8qk1ea","Thu Feb 18 2021 08:19:10 GMT+0100 (CET)","2021","2","18","8","19","10","hp99","21","female","right","50","28","9","0","12","","","","","","","","",""
"2634","","","survey-text","1","3794","0.0-1.0","8qk1ea","Thu Feb 18 2021 08:19:10 GMT+0100 (CET)","2021","2","18","8","19","10","hp99","21","female","right","50","28","9","0","12","{""Q0"":""hp99""}","","","","","","","",""
"1220","","","survey-text","2","5021","0.0-2.0","8qk1ea","Thu Feb 18 2021 08:19:10 GMT+0100 (CET)","2021","2","18","8","19","10","hp99","21","female","right","50","28","9","0","12","{""Q0"":""21""}","","","","","","","",""
"4859","","","survey-multi-select","3","9883","0.0-3.0","8qk1ea","Thu Feb 18 2021 08:19:10 GMT+0100 (CET)","2021","2","18","8","19","10","hp99","21","female","right","50","28","9","0","12","{""Gender"":[""female""],""Hand"":[""right""]}","[0,1]","","","","","","",""
"2359","<p>How Sad/Angry or Happy are you right now?</p>","","html-slider-response","4","12246","0.0-4.0","8qk1ea","Thu Feb 18 2021 08:19:10 GMT+0100 (CET)","2021","2","18","8","19","10","hp99","21","female","right","50","28","9","0","12","","","50","50","","","","",""
"3582.000000000002","<p>How Tired/Sleepy/Distracted or Fresh/Awake/Alert are you right now?</p>","","html-slider-response","5","15831","0.0-5.0","8qk1ea","Thu Feb 18 2021 08:19:10 GMT+0100 (CET)","2021","2","18","8","19","10","hp99","21","female","right","50","28","9","0","12","","","50","28","","","","",""
"4189.999999999998","<p>How Hungry or Satiated are you right now?</p>","","html-slider-response","6","20024","0.0-6.0","8qk1ea","Thu Feb 18 2021 08:19:10 GMT+0100 (CET)","2021","2","18","8","19","10","hp99","21","female","right","50","28","9","0","12","","","50","9","","","","",""
"14234.999999999996","","","survey-multi-select","7","34277","0.0-7.0","8qk1ea","Thu Feb 18 2021 08:19:10 GMT+0100 (CET)","2021","2","18","8","19","10","hp99","21","female","right","50","28","9","0","12","{""Sleep"":[""0""],""Eat"":[""12""]}","[0,1]","","","","","","",""
"25669","<p>In this experiment, a face and a word will appear in the center of the screen.</p><p>If the face is <strong>happy</strong>, press the letter <strong>H</strong> with <strong>right</strong> index finger.</p><p>If the face is <strong>fearful</strong>, press the letter <strong>F</strong> with <strong>left</strong> index finger.</p><p><strong>Ignore the written words</strong>. Respond as fast as possible while being correct. </p><div style='width: 900px;'><div style='float: left;'><img src='img/stimuli_stroop_happy.png'></img><p class='small'><strong>Press the H key for happy faces</strong></p></div><div class='float: right;'><img src='img/stimuli_stroop_fear.png'></img><p class='small'><strong>Press the F key for faces with fear</strong></p></div></div><p>If the screen turns blank, press <strong>SPACE</strong></p><p><strong>Press any key to begin.</strong></p>","32","html-keyboard-response","8","59949","0.0-8.0","8qk1ea","Thu Feb 18 2021 08:19:10 GMT+0100 (CET)","2021","2","18","8","19","10","hp99","21","female","right","50","28","9","0","12","","","","","","","","",""
"null","<div style=""font-size:60px;"">+</div>","null","html-keyboard-response","9","62201","0.0-9.0-0.0","8qk1ea","Thu Feb 18 2021 08:19:10 GMT+0100 (CET)","2021","2","18","8","19","10","hp99","21","female","right","50","28","9","0","12","","","","","fixation","","","",""
"772.0000000000073","img/image_stim_f.png","70","image-keyboard-response","10","62988","0.0-9.0-1.0","8qk1ea","Thu Feb 18 2021 08:19:10 GMT+0100 (CET)","2021","2","18","8","19","10","hp99","21","female","right","50","28","9","0","12","","","","","test","fear","fear","f","true"
"null","<div style=""font-size:60px;"">+</div>","null","html-keyboard-response","11","63250","0.0-9.0-0.1","8qk1ea","Thu Feb 18 2021 08:19:10 GMT+0100 (CET)","2021","2","18","8","19","10","hp99","21","female","right","50","28","9","0","12","","","","","fixation","","","",""
"649.0000000000073","img/image_stim_h.png","72","image-keyboard-response","12","63902","0.0-9.0-1.1","8qk1ea","Thu Feb 18 2021 08:19:10 GMT+0100 (CET)","2021","2","18","8","19","10","hp99","21","female","right","50","28","9","0","12","","","","","test","happy","happy","h","true"
"null","<div style=""font-size:60px;"">+</div>","null","html-keyboard-response","13","64908","0.0-9.0-0.2","8qk1ea","Thu Feb 18 2021 08:19:10 GMT+0100 (CET)","2021","2","18","8","19","10","hp99","21","female","right","50","28","9","0","12","","","","","fixation","","","",""
"936.0000000000073","img/image_stim_f_stroop.png","70","image-keyboard-response","14","65847","0.0-9.0-1.2","8qk1ea","Thu Feb 18 2021 08:19:10 GMT+0100 (CET)","2021","2","18","8","19","10","hp99","21","female","right","50","28","9","0","12","","","","","test","fear","happy","f","true"
"null","<div style=""font-size:60px;"">+</div>","null","html-keyboard-response","15","67101","0.0-9.0-0.3","8qk1ea","Thu Feb 18 2021 08:19:10 GMT+0100 (CET)","2021","2","18","8","19","10","hp99","21","female","right","50","28","9","0","12","","","","","fixation","","","",""
"967","img/image_stim_h_stroop.png","72","image-keyboard-response","16","68071","0.0-9.0-1.3","8qk1ea","Thu Feb 18 2021 08:19:10 GMT+0100 (CET)","2021","2","18","8","19","10","hp99","21","female","right","50","28","9","0","12","","","","","test","happy","fear","h","true"
"null","<div style=""font-size:60px;"">+</div>","null","html-keyboard-response","17","70076","0.0-9.0-0.4","8qk1ea","Thu Feb 18 2021 08:19:10 GMT+0100 (CET)","2021","2","18","8","19","10","hp99","21","female","right","50","28","9","0","12","","","","","fixation","","","",""
"730","img/image_stim_f.png","70","image-keyboard-response","18","70808","0.0-9.0-1.4","8qk1ea","Thu Feb 18 2021 08:19:10 GMT+0100 (CET)","2021","2","18","8","19","10","hp99","21","female","right","50","28","9","0","12","","","","","test","fear","fear","f","true"
"null","<div style=""font-size:60px;"">+</div>","null","html-keyboard-response","19","72812","0.0-9.0-0.5","8qk1ea","Thu Feb 18 2021 08:19:10 GMT+0100 (CET)","2021","2","18","8","19","10","hp99","21","female","right","50","28","9","0","12","","","","","fixation","","","",""
"552","img/image_stim_h.png","72","image-keyboard-response","20","73366","0.0-9.0-1.5","8qk1ea","Thu Feb 18 2021 08:19:10 GMT+0100 (CET)","2021","2","18","8","19","10","hp99","21","female","right","50","28","9","0","12","","","","","test","happy","happy","h","true"
"null","<div style=""font-size:60px;"">+</div>","null","html-keyboard-response","21","75370","0.0-9.0-0.6","8qk1ea","Thu Feb 18 2021 08:19:10 GMT+0100 (CET)","2021","2","18","8","19","10","hp99","21","female","right","50","28","9","0","12","","","","","fixation","","","",""
"716","img/image_stim_h_stroop.png","72","image-keyboard-response","22","76088","0.0-9.0-1.6","8qk1ea","Thu Feb 18 2021 08:19:10 GMT+0100 (CET)","2021","2","18","8","19","10","hp99","21","female","right","50","28","9","0","12","","","","","test","happy","fear","h","true"
"null","<div style=""font-size:60px;"">+</div>","null","html-keyboard-response","23","77342","0.0-9.0-0.7","8qk1ea","Thu Feb 18 2021 08:19:10 GMT+0100 (CET)","2021","2","18","8","19","10","hp99","21","female","right","50","28","9","0","12","","","","","fixation","","","",""
"740","img/image_stim_f_stroop.png","70","image-keyboard-response","24","78085","0.0-9.0-1.7","8qk1ea","Thu Feb 18 2021 08:19:10 GMT+0100 (CET)","2021","2","18","8","19","10","hp99","21","female","right","50","28","9","0","12","","","","","test","fear","happy","f","true"
"null","<div style=""font-size:60px;"">+</div>","null","html-keyboard-response","25","78339","0.0-9.0-0.8","8qk1ea","Thu Feb 18 2021 08:19:10 GMT+0100 (CET)","2021","2","18","8","19","10","hp99","21","female","right","50","28","9","0","12","","","","","fixation","","","",""
"776","img/image_stim_f_stroop.png","70","image-keyboard-response","26","79117","0.0-9.0-1.8","8qk1ea","Thu Feb 18 2021 08:19:10 GMT+0100 (CET)","2021","2","18","8","19","10","hp99","21","female","right","50","28","9","0","12","","","","","test","fear","happy","f","true"
"null","<div style=""font-size:60px;"">+</div>","null","html-keyboard-response","27","80371","0.0-9.0-0.9","8qk1ea","Thu Feb 18 2021 08:19:10 GMT+0100 (CET)","2021","2","18","8","19","10","hp99","21","female","right","50","28","9","0","12","","","","","fixation","","","",""
"921","img/image_stim_h_stroop.png","72","image-keyboard-response","28","81294","0.0-9.0-1.9","8qk1ea","Thu Feb 18 2021 08:19:10 GMT+0100 (CET)","2021","2","18","8","19","10","hp99","21","female","right","50","28","9","0","12","","","","","test","happy","fear","h","true"
"null","<div style=""font-size:60px;"">+</div>","null","html-keyboard-response","29","82797","0.0-9.0-0.10","8qk1ea","Thu Feb 18 2021 08:19:10 GMT+0100 (CET)","2021","2","18","8","19","10","hp99","21","female","right","50","28","9","0","12","","","","","fixation","","","",""
"848","img/image_stim_h.png","72","image-keyboard-response","30","83647","0.0-9.0-1.10","8qk1ea","Thu Feb 18 2021 08:19:10 GMT+0100 (CET)","2021","2","18","8","19","10","hp99","21","female","right","50","28","9","0","12","","","","","test","happy","happy","h","true"
"null","<div style=""font-size:60px;"">+</div>","null","html-keyboard-response","31","85651","0.0-9.0-0.11","8qk1ea","Thu Feb 18 2021 08:19:10 GMT+0100 (CET)","2021","2","18","8","19","10","hp99","21","female","right","50","28","9","0","12","","","","","fixation","","","",""
"820","img/image_stim_f.png","70","image-keyboard-response","32","86473","0.0-9.0-1.11","8qk1ea","Thu Feb 18 2021 08:19:10 GMT+0100 (CET)","2021","2","18","8","19","10","hp99","21","female","right","50","28","9","0","12","","","","","test","fear","fear","f","true"
"null","<div style=""font-size:60px;"">+</div>","null","html-keyboard-response","33","88227","0.0-9.0-0.12","8qk1ea","Thu Feb 18 2021 08:19:10 GMT+0100 (CET)","2021","2","18","8","19","10","hp99","21","female","right","50","28","9","0","12","","","","","fixation","","","",""
"802","img/image_stim_h_stroop.png","72","image-keyboard-response","34","89032","0.0-9.0-1.12","8qk1ea","Thu Feb 18 2021 08:19:10 GMT+0100 (CET)","2021","2","18","8","19","10","hp99","21","female","right","50","28","9","0","12","","","","","test","happy","fear","h","true"
"null","<div style=""font-size:60px;"">+</div>","null","html-keyboard-response","35","90036","0.0-9.0-0.13","8qk1ea","Thu Feb 18 2021 08:19:10 GMT+0100 (CET)","2021","2","18","8","19","10","hp99","21","female","right","50","28","9","0","12","","","","","fixation","","","",""
"578","img/image_stim_f_stroop.png","70","image-keyboard-response","36","90616","0.0-9.0-1.13","8qk1ea","Thu Feb 18 2021 08:19:10 GMT+0100 (CET)","2021","2","18","8","19","10","hp99","21","female","right","50","28","9","0","12","","","","","test","fear","happy","f","true"
"null","<div style=""font-size:60px;"">+</div>","null","html-keyboard-response","37","91120","0.0-9.0-0.14","8qk1ea","Thu Feb 18 2021 08:19:10 GMT+0100 (CET)","2021","2","18","8","19","10","hp99","21","female","right","50","28","9","0","12","","","","","fixation","","","",""
"810","img/image_stim_f.png","70","image-keyboard-response","38","91932","0.0-9.0-1.14","8qk1ea","Thu Feb 18 2021 08:19:10 GMT+0100 (CET)","2021","2","18","8","19","10","hp99","21","female","right","50","28","9","0","12","","","","","test","fear","fear","f","true"
"null","<div style=""font-size:60px;"">+</div>","null","html-keyboard-response","39","92686","0.0-9.0-0.15","8qk1ea","Thu Feb 18 2021 08:19:10 GMT+0100 (CET)","2021","2","18","8","19","10","hp99","21","female","right","50","28","9","0","12","","","","","fixation","","","",""
"611","img/image_stim_h.png","72","image-keyboard-response","40","93299","0.0-9.0-1.15","8qk1ea","Thu Feb 18 2021 08:19:10 GMT+0100 (CET)","2021","2","18","8","19","10","hp99","21","female","right","50","28","9","0","12","","","","","test","happy","happy","h","true"
"null","<div style=""font-size:60px;"">+</div>","null","html-keyboard-response","41","94803","0.0-9.0-0.16","8qk1ea","Thu Feb 18 2021 08:19:10 GMT+0100 (CET)","2021","2","18","8","19","10","hp99","21","female","right","50","28","9","0","12","","","","","fixation","","","",""
"738","img/image_stim_f_stroop.png","70","image-keyboard-response","42","95543","0.0-9.0-1.16","8qk1ea","Thu Feb 18 2021 08:19:10 GMT+0100 (CET)","2021","2","18","8","19","10","hp99","21","female","right","50","28","9","0","12","","","","","test","fear","happy","f","true"
"null","<div style=""font-size:60px;"">+</div>","null","html-keyboard-response","43","97297","0.0-9.0-0.17","8qk1ea","Thu Feb 18 2021 08:19:10 GMT+0100 (CET)","2021","2","18","8","19","10","hp99","21","female","right","50","28","9","0","12","","","","","fixation","","","",""
"944","img/image_stim_h_stroop.png","72","image-keyboard-response","44","98244","0.0-9.0-1.17","8qk1ea","Thu Feb 18 2021 08:19:10 GMT+0100 (CET)","2021","2","18","8","19","10","hp99","21","female","right","50","28","9","0","12","","","","","test","happy","fear","h","true"
"null","<div style=""font-size:60px;"">+</div>","null","html-keyboard-response","45","99749","0.0-9.0-0.18","8qk1ea","Thu Feb 18 2021 08:19:10 GMT+0100 (CET)","2021","2","18","8","19","10","hp99","21","female","right","50","28","9","0","12","","","","","fixation","","","",""
"759","img/image_stim_f.png","70","image-keyboard-response","46","100509","0.0-9.0-1.18","8qk1ea","Thu Feb 18 2021 08:19:10 GMT+0100 (CET)","2021","2","18","8","19","10","hp99","21","female","right","50","28","9","0","12","","","","","test","fear","fear","f","true"
"null","<div style=""font-size:60px;"">+</div>","null","html-keyboard-response","47","101763","0.0-9.0-0.19","8qk1ea","Thu Feb 18 2021 08:19:10 GMT+0100 (CET)","2021","2","18","8","19","10","hp99","21","female","right","50","28","9","0","12","","","","","fixation","","","",""
"744.9999999999854","img/image_stim_h.png","72","image-keyboard-response","48","102510","0.0-9.0-1.19","8qk1ea","Thu Feb 18 2021 08:19:10 GMT+0100 (CET)","2021","2","18","8","19","10","hp99","21","female","right","50","28","9","0","12","","","","","test","happy","happy","h","true"
"null","<div style=""font-size:60px;"">+</div>","null","html-keyboard-response","49","104014","0.0-9.0-0.20","8qk1ea","Thu Feb 18 2021 08:19:10 GMT+0100 (CET)","2021","2","18","8","19","10","hp99","21","female","right","50","28","9","0","12","","","","","fixation","","","",""
"633.0000000000146","img/image_stim_f.png","70","image-keyboard-response","50","104650","0.0-9.0-1.20","8qk1ea","Thu Feb 18 2021 08:19:10 GMT+0100 (CET)","2021","2","18","8","19","10","hp99","21","female","right","50","28","9","0","12","","","","","test","fear","fear","f","true"
"null","<div style=""font-size:60px;"">+</div>","null","html-keyboard-response","51","105155","0.0-9.0-0.21","8qk1ea","Thu Feb 18 2021 08:19:10 GMT+0100 (CET)","2021","2","18","8","19","10","hp99","21","female","right","50","28","9","0","12","","","","","fixation","","","",""
"622","img/image_stim_f_stroop.png","72","image-keyboard-response","52","105779","0.0-9.0-1.21","8qk1ea","Thu Feb 18 2021 08:19:10 GMT+0100 (CET)","2021","2","18","8","19","10","hp99","21","female","right","50","28","9","0","12","","","","","test","fear","happy","f","false"
"null","<div style=""font-size:60px;"">+</div>","null","html-keyboard-response","53","106534","0.0-9.0-0.22","8qk1ea","Thu Feb 18 2021 08:19:10 GMT+0100 (CET)","2021","2","18","8","19","10","hp99","21","female","right","50","28","9","0","12","","","","","fixation","","","",""
"673.9999999999854","img/image_stim_h.png","72","image-keyboard-response","54","107210","0.0-9.0-1.22","8qk1ea","Thu Feb 18 2021 08:19:10 GMT+0100 (CET)","2021","2","18","8","19","10","hp99","21","female","right","50","28","9","0","12","","","","","test","happy","happy","h","true"
"null","<div style=""font-size:60px;"">+</div>","null","html-keyboard-response","55","108715","0.0-9.0-0.23","8qk1ea","Thu Feb 18 2021 08:19:10 GMT+0100 (CET)","2021","2","18","8","19","10","hp99","21","female","right","50","28","9","0","12","","","","","fixation","","","",""
"1043","img/image_stim_h_stroop.png","72","image-keyboard-response","56","109760","0.0-9.0-1.23","8qk1ea","Thu Feb 18 2021 08:19:10 GMT+0100 (CET)","2021","2","18","8","19","10","hp99","21","female","right","50","28","9","0","12","","","","","test","happy","fear","h","true"
"null","<div style=""font-size:60px;"">+</div>","null","html-keyboard-response","57","110765","0.0-9.0-0.24","8qk1ea","Thu Feb 18 2021 08:19:10 GMT+0100 (CET)","2021","2","18","8","19","10","hp99","21","female","right","50","28","9","0","12","","","","","fixation","","","",""
"650.0000000000146","img/image_stim_f.png","70","image-keyboard-response","58","111417","0.0-9.0-1.24","8qk1ea","Thu Feb 18 2021 08:19:10 GMT+0100 (CET)","2021","2","18","8","19","10","hp99","21","female","right","50","28","9","0","12","","","","","test","fear","fear","f","true"
"null","<div style=""font-size:60px;"">+</div>","null","html-keyboard-response","59","112423","0.0-9.0-0.25","8qk1ea","Thu Feb 18 2021 08:19:10 GMT+0100 (CET)","2021","2","18","8","19","10","hp99","21","female","right","50","28","9","0","12","","","","","fixation","","","",""
"676","img/image_stim_h.png","72","image-keyboard-response","60","113101","0.0-9.0-1.25","8qk1ea","Thu Feb 18 2021 08:19:10 GMT+0100 (CET)","2021","2","18","8","19","10","hp99","21","female","right","50","28","9","0","12","","","","","test","happy","happy","h","true"
"null","<div style=""font-size:60px;"">+</div>","null","html-keyboard-response","61","114606","0.0-9.0-0.26","8qk1ea","Thu Feb 18 2021 08:19:10 GMT+0100 (CET)","2021","2","18","8","19","10","hp99","21","female","right","50","28","9","0","12","","","","","fixation","","","",""
"686","img/image_stim_f_stroop.png","70","image-keyboard-response","62","115293","0.0-9.0-1.26","8qk1ea","Thu Feb 18 2021 08:19:10 GMT+0100 (CET)","2021","2","18","8","19","10","hp99","21","female","right","50","28","9","0","12","","","","","test","fear","happy","f","true"
"null","<div style=""font-size:60px;"">+</div>","null","html-keyboard-response","63","115798","0.0-9.0-0.27","8qk1ea","Thu Feb 18 2021 08:19:10 GMT+0100 (CET)","2021","2","18","8","19","10","hp99","21","female","right","50","28","9","0","12","","","","","fixation","","","",""
"884","img/image_stim_h_stroop.png","72","image-keyboard-response","64","116684","0.0-9.0-1.27","8qk1ea","Thu Feb 18 2021 08:19:10 GMT+0100 (CET)","2021","2","18","8","19","10","hp99","21","female","right","50","28","9","0","12","","","","","test","happy","fear","h","true"
"null","<div style=""font-size:60px;"">+</div>","null","html-keyboard-response","65","118440","0.0-9.0-0.28","8qk1ea","Thu Feb 18 2021 08:19:10 GMT+0100 (CET)","2021","2","18","8","19","10","hp99","21","female","right","50","28","9","0","12","","","","","fixation","","","",""
"739","img/image_stim_h_stroop.png","72","image-keyboard-response","66","119181","0.0-9.0-1.28","8qk1ea","Thu Feb 18 2021 08:19:10 GMT+0100 (CET)","2021","2","18","8","19","10","hp99","21","female","right","50","28","9","0","12","","","","","test","happy","fear","h","true"
"null","<div style=""font-size:60px;"">+</div>","null","html-keyboard-response","67","119686","0.0-9.0-0.29","8qk1ea","Thu Feb 18 2021 08:19:10 GMT+0100 (CET)","2021","2","18","8","19","10","hp99","21","female","right","50","28","9","0","12","","","","","fixation","","","",""
"901","img/image_stim_f.png","70","image-keyboard-response","68","120589","0.0-9.0-1.29","8qk1ea","Thu Feb 18 2021 08:19:10 GMT+0100 (CET)","2021","2","18","8","19","10","hp99","21","female","right","50","28","9","0","12","","","","","test","fear","fear","f","true"
"null","<div style=""font-size:60px;"">+</div>","null","html-keyboard-response","69","122594","0.0-9.0-0.30","8qk1ea","Thu Feb 18 2021 08:19:10 GMT+0100 (CET)","2021","2","18","8","19","10","hp99","21","female","right","50","28","9","0","12","","","","","fixation","","","",""
"647","img/image_stim_h.png","72","image-keyboard-response","70","123243","0.0-9.0-1.30","8qk1ea","Thu Feb 18 2021 08:19:10 GMT+0100 (CET)","2021","2","18","8","19","10","hp99","21","female","right","50","28","9","0","12","","","","","test","happy","happy","h","true"
"null","<div style=""font-size:60px;"">+</div>","null","html-keyboard-response","71","123498","0.0-9.0-0.31","8qk1ea","Thu Feb 18 2021 08:19:10 GMT+0100 (CET)","2021","2","18","8","19","10","hp99","21","female","right","50","28","9","0","12","","","","","fixation","","","",""
"923.9999999999854","img/image_stim_f_stroop.png","70","image-keyboard-response","72","124424","0.0-9.0-1.31","8qk1ea","Thu Feb 18 2021 08:19:10 GMT+0100 (CET)","2021","2","18","8","19","10","hp99","21","female","right","50","28","9","0","12","","","","","test","fear","happy","f","true"
"null","<div style=""font-size:60px;"">+</div>","null","html-keyboard-response","73","125929","0.0-9.0-0.32","8qk1ea","Thu Feb 18 2021 08:19:10 GMT+0100 (CET)","2021","2","18","8","19","10","hp99","21","female","right","50","28","9","0","12","","","","","fixation","","","",""
"594","img/image_stim_h_stroop.png","72","image-keyboard-response","74","126525","0.0-9.0-1.32","8qk1ea","Thu Feb 18 2021 08:19:10 GMT+0100 (CET)","2021","2","18","8","19","10","hp99","21","female","right","50","28","9","0","12","","","","","test","happy","fear","h","true"
"null","<div style=""font-size:60px;"">+</div>","null","html-keyboard-response","75","127530","0.0-9.0-0.33","8qk1ea","Thu Feb 18 2021 08:19:10 GMT+0100 (CET)","2021","2","18","8","19","10","hp99","21","female","right","50","28","9","0","12","","","","","fixation","","","",""
"679","img/image_stim_f_stroop.png","70","image-keyboard-response","76","128212","0.0-9.0-1.33","8qk1ea","Thu Feb 18 2021 08:19:10 GMT+0100 (CET)","2021","2","18","8","19","10","hp99","21","female","right","50","28","9","0","12","","","","","test","fear","happy","f","true"
"null","<div style=""font-size:60px;"">+</div>","null","html-keyboard-response","77","129967","0.0-9.0-0.34","8qk1ea","Thu Feb 18 2021 08:19:10 GMT+0100 (CET)","2021","2","18","8","19","10","hp99","21","female","right","50","28","9","0","12","","","","","fixation","","","",""
"838.9999999999854","img/image_stim_f.png","70","image-keyboard-response","78","130809","0.0-9.0-1.34","8qk1ea","Thu Feb 18 2021 08:19:10 GMT+0100 (CET)","2021","2","18","8","19","10","hp99","21","female","right","50","28","9","0","12","","","","","test","fear","fear","f","true"
"null","<div style=""font-size:60px;"">+</div>","null","html-keyboard-response","79","131564","0.0-9.0-0.35","8qk1ea","Thu Feb 18 2021 08:19:10 GMT+0100 (CET)","2021","2","18","8","19","10","hp99","21","female","right","50","28","9","0","12","","","","","fixation","","","",""
"709","img/image_stim_h.png","72","image-keyboard-response","80","132276","0.0-9.0-1.35","8qk1ea","Thu Feb 18 2021 08:19:10 GMT+0100 (CET)","2021","2","18","8","19","10","hp99","21","female","right","50","28","9","0","12","","","","","test","happy","happy","h","true"
