"rt","stimulus","key_press","trial_type","trial_index","time_elapsed","internal_node_id","exp_id","Time","year","month","date","hour","minute","seconds","id","age","Gender","Handedness","mood","fresh","hunger","H_since_Sleep","H_since_Eat","responses","question_order","slider_start","response","test_part","face","word","correct_response","correct"
"9234.800000011921","<p>Welcome to this experiment on daily rhythms and cognition.</p><p>First you will be asked some questions about yourself.</p><p>Then a short experiment will measure your response time.</p><p>Take the test at different times of the day/night.</p><p>The test is anonymous, but comparing your data across time is important.</p><p>Therefore, please make up and remember a personal ID (two letters+ two numbers).</p><p>Use this ID whenever taking the test.</p><p><strong>Press any key to begin.</strong></p>","91","html-keyboard-response","0","9239","0.0-0.0","2nkjjp","Mon Feb 07 2022 20:05:58 GMT+0100 (Centraleuropæisk normaltid)","2022","2","7","20","5","58","EL00","21","male","right","48","59","41","11","0","","","","","","","","",""
"25072.19999998808","","","survey-text","1","34322","0.0-1.0","2nkjjp","Mon Feb 07 2022 20:05:58 GMT+0100 (Centraleuropæisk normaltid)","2022","2","7","20","5","58","EL00","21","male","right","48","59","41","11","0","{""Q0"":""EL00""}","","","","","","","",""
"4553.9000000059605","","","survey-text","2","38880","0.0-2.0","2nkjjp","Mon Feb 07 2022 20:05:58 GMT+0100 (Centraleuropæisk normaltid)","2022","2","7","20","5","58","EL00","21","male","right","48","59","41","11","0","{""Q0"":""21""}","","","","","","","",""
"3369.300000011921","","","survey-multi-select","3","42256","0.0-3.0","2nkjjp","Mon Feb 07 2022 20:05:58 GMT+0100 (Centraleuropæisk normaltid)","2022","2","7","20","5","58","EL00","21","male","right","48","59","41","11","0","{""Gender"":[""male""],""Hand"":[""right""]}","[0,1]","","","","","","",""
"12074","<p>How Sad/Angry or Happy are you right now?</p>","","html-slider-response","4","54334","0.0-4.0","2nkjjp","Mon Feb 07 2022 20:05:58 GMT+0100 (Centraleuropæisk normaltid)","2022","2","7","20","5","58","EL00","21","male","right","48","59","41","11","0","","","50","48","","","","",""
"10048.300000011921","<p>How Tired/Sleepy/Distracted or Fresh/Awake/Alert are you right now?</p>","","html-slider-response","5","64386","0.0-5.0","2nkjjp","Mon Feb 07 2022 20:05:58 GMT+0100 (Centraleuropæisk normaltid)","2022","2","7","20","5","58","EL00","21","male","right","48","59","41","11","0","","","50","59","","","","",""
"5982.299999982119","<p>How Hungry or Satiated are you right now?</p>","","html-slider-response","6","70372","0.0-6.0","2nkjjp","Mon Feb 07 2022 20:05:58 GMT+0100 (Centraleuropæisk normaltid)","2022","2","7","20","5","58","EL00","21","male","right","48","59","41","11","0","","","50","41","","","","",""
"18878.40000000596","","","survey-multi-select","7","89314","0.0-7.0","2nkjjp","Mon Feb 07 2022 20:05:58 GMT+0100 (Centraleuropæisk normaltid)","2022","2","7","20","5","58","EL00","21","male","right","48","59","41","11","0","{""Sleep"":[""11""],""Eat"":[""0""]}","[0,1]","","","","","","",""
"19662.600000023842","<p>In this experiment, a face and a word will appear in the center of the screen.</p><p>If the face is <strong>happy</strong>, press the letter <strong>H</strong> with <strong>right</strong> index finger.</p><p>If the face is <strong>fearful</strong>, press the letter <strong>F</strong> with <strong>left</strong> index finger.</p><p><strong>Ignore the written words</strong>. Respond as fast as possible while being correct. </p><div style='width: 900px;'><div style='float: left;'><img src='img/stimuli_stroop_happy.png'></img><p class='small'><strong>Press the H key for happy faces</strong></p></div><div class='float: right;'><img src='img/stimuli_stroop_fear.png'></img><p class='small'><strong>Press the F key for faces with fear</strong></p></div></div><p>If the screen turns blank, press <strong>SPACE</strong></p><p><strong>Press any key to begin.</strong></p>","32","html-keyboard-response","8","108980","0.0-8.0","2nkjjp","Mon Feb 07 2022 20:05:58 GMT+0100 (Centraleuropæisk normaltid)","2022","2","7","20","5","58","EL00","21","male","right","48","59","41","11","0","","","","","","","","",""
"null","<div style=""font-size:60px;"">+</div>","null","html-keyboard-response","9","111989","0.0-9.0-0.0","2nkjjp","Mon Feb 07 2022 20:05:58 GMT+0100 (Centraleuropæisk normaltid)","2022","2","7","20","5","58","EL00","21","male","right","48","59","41","11","0","","","","","fixation","","","",""
"742.8999999761581","img/image_stim_h_stroop.png","70","image-keyboard-response","10","112747","0.0-9.0-1.0","2nkjjp","Mon Feb 07 2022 20:05:58 GMT+0100 (Centraleuropæisk normaltid)","2022","2","7","20","5","58","EL00","21","male","right","48","59","41","11","0","","","","","test","happy","fear","h","false"
"null","<div style=""font-size:60px;"">+</div>","null","html-keyboard-response","11","114758","0.0-9.0-0.1","2nkjjp","Mon Feb 07 2022 20:05:58 GMT+0100 (Centraleuropæisk normaltid)","2022","2","7","20","5","58","EL00","21","male","right","48","59","41","11","0","","","","","fixation","","","",""
"506.7000000178814","img/image_stim_f.png","70","image-keyboard-response","12","115267","0.0-9.0-1.1","2nkjjp","Mon Feb 07 2022 20:05:58 GMT+0100 (Centraleuropæisk normaltid)","2022","2","7","20","5","58","EL00","21","male","right","48","59","41","11","0","","","","","test","fear","fear","f","true"
"null","<div style=""font-size:60px;"">+</div>","null","html-keyboard-response","13","116522","0.0-9.0-0.2","2nkjjp","Mon Feb 07 2022 20:05:58 GMT+0100 (Centraleuropæisk normaltid)","2022","2","7","20","5","58","EL00","21","male","right","48","59","41","11","0","","","","","fixation","","","",""
"607.1999999880791","img/image_stim_f_stroop.png","72","image-keyboard-response","14","117131","0.0-9.0-1.2","2nkjjp","Mon Feb 07 2022 20:05:58 GMT+0100 (Centraleuropæisk normaltid)","2022","2","7","20","5","58","EL00","21","male","right","48","59","41","11","0","","","","","test","fear","happy","f","false"
"null","<div style=""font-size:60px;"">+</div>","null","html-keyboard-response","15","118389","0.0-9.0-0.3","2nkjjp","Mon Feb 07 2022 20:05:58 GMT+0100 (Centraleuropæisk normaltid)","2022","2","7","20","5","58","EL00","21","male","right","48","59","41","11","0","","","","","fixation","","","",""
"859.5","img/image_stim_h.png","72","image-keyboard-response","16","119251","0.0-9.0-1.3","2nkjjp","Mon Feb 07 2022 20:05:58 GMT+0100 (Centraleuropæisk normaltid)","2022","2","7","20","5","58","EL00","21","male","right","48","59","41","11","0","","","","","test","happy","happy","h","true"
"null","<div style=""font-size:60px;"">+</div>","null","html-keyboard-response","17","120010","0.0-9.0-0.4","2nkjjp","Mon Feb 07 2022 20:05:58 GMT+0100 (Centraleuropæisk normaltid)","2022","2","7","20","5","58","EL00","21","male","right","48","59","41","11","0","","","","","fixation","","","",""
"751.3000000119209","img/image_stim_f_stroop.png","70","image-keyboard-response","18","120764","0.0-9.0-1.4","2nkjjp","Mon Feb 07 2022 20:05:58 GMT+0100 (Centraleuropæisk normaltid)","2022","2","7","20","5","58","EL00","21","male","right","48","59","41","11","0","","","","","test","fear","happy","f","true"
"null","<div style=""font-size:60px;"">+</div>","null","html-keyboard-response","19","122772","0.0-9.0-0.5","2nkjjp","Mon Feb 07 2022 20:05:58 GMT+0100 (Centraleuropæisk normaltid)","2022","2","7","20","5","58","EL00","21","male","right","48","59","41","11","0","","","","","fixation","","","",""
"843.5999999940395","img/image_stim_h_stroop.png","72","image-keyboard-response","20","123618","0.0-9.0-1.5","2nkjjp","Mon Feb 07 2022 20:05:58 GMT+0100 (Centraleuropæisk normaltid)","2022","2","7","20","5","58","EL00","21","male","right","48","59","41","11","0","","","","","test","happy","fear","h","true"
"null","<div style=""font-size:60px;"">+</div>","null","html-keyboard-response","21","124875","0.0-9.0-0.6","2nkjjp","Mon Feb 07 2022 20:05:58 GMT+0100 (Centraleuropæisk normaltid)","2022","2","7","20","5","58","EL00","21","male","right","48","59","41","11","0","","","","","fixation","","","",""
"852.3000000119209","img/image_stim_f.png","70","image-keyboard-response","22","125729","0.0-9.0-1.6","2nkjjp","Mon Feb 07 2022 20:05:58 GMT+0100 (Centraleuropæisk normaltid)","2022","2","7","20","5","58","EL00","21","male","right","48","59","41","11","0","","","","","test","fear","fear","f","true"
"null","<div style=""font-size:60px;"">+</div>","null","html-keyboard-response","23","126740","0.0-9.0-0.7","2nkjjp","Mon Feb 07 2022 20:05:58 GMT+0100 (Centraleuropæisk normaltid)","2022","2","7","20","5","58","EL00","21","male","right","48","59","41","11","0","","","","","fixation","","","",""
"615.5999999940395","img/image_stim_h.png","72","image-keyboard-response","24","127358","0.0-9.0-1.7","2nkjjp","Mon Feb 07 2022 20:05:58 GMT+0100 (Centraleuropæisk normaltid)","2022","2","7","20","5","58","EL00","21","male","right","48","59","41","11","0","","","","","test","happy","happy","h","true"
"null","<div style=""font-size:60px;"">+</div>","null","html-keyboard-response","25","129365","0.0-9.0-0.8","2nkjjp","Mon Feb 07 2022 20:05:58 GMT+0100 (Centraleuropæisk normaltid)","2022","2","7","20","5","58","EL00","21","male","right","48","59","41","11","0","","","","","fixation","","","",""
"576.4000000059605","img/image_stim_h.png","72","image-keyboard-response","26","129945","0.0-9.0-1.8","2nkjjp","Mon Feb 07 2022 20:05:58 GMT+0100 (Centraleuropæisk normaltid)","2022","2","7","20","5","58","EL00","21","male","right","48","59","41","11","0","","","","","test","happy","happy","h","true"
"null","<div style=""font-size:60px;"">+</div>","null","html-keyboard-response","27","130450","0.0-9.0-0.9","2nkjjp","Mon Feb 07 2022 20:05:58 GMT+0100 (Centraleuropæisk normaltid)","2022","2","7","20","5","58","EL00","21","male","right","48","59","41","11","0","","","","","fixation","","","",""
"586.6999999880791","img/image_stim_f.png","70","image-keyboard-response","28","131039","0.0-9.0-1.9","2nkjjp","Mon Feb 07 2022 20:05:58 GMT+0100 (Centraleuropæisk normaltid)","2022","2","7","20","5","58","EL00","21","male","right","48","59","41","11","0","","","","","test","fear","fear","f","true"
"null","<div style=""font-size:60px;"">+</div>","null","html-keyboard-response","29","131796","0.0-9.0-0.10","2nkjjp","Mon Feb 07 2022 20:05:58 GMT+0100 (Centraleuropæisk normaltid)","2022","2","7","20","5","58","EL00","21","male","right","48","59","41","11","0","","","","","fixation","","","",""
"467.30000001192093","img/image_stim_f_stroop.png","70","image-keyboard-response","30","132266","0.0-9.0-1.10","2nkjjp","Mon Feb 07 2022 20:05:58 GMT+0100 (Centraleuropæisk normaltid)","2022","2","7","20","5","58","EL00","21","male","right","48","59","41","11","0","","","","","test","fear","happy","f","true"
"null","<div style=""font-size:60px;"">+</div>","null","html-keyboard-response","31","133275","0.0-9.0-0.11","2nkjjp","Mon Feb 07 2022 20:05:58 GMT+0100 (Centraleuropæisk normaltid)","2022","2","7","20","5","58","EL00","21","male","right","48","59","41","11","0","","","","","fixation","","","",""
"618.8999999761581","img/image_stim_h_stroop.png","72","image-keyboard-response","32","133896","0.0-9.0-1.11","2nkjjp","Mon Feb 07 2022 20:05:58 GMT+0100 (Centraleuropæisk normaltid)","2022","2","7","20","5","58","EL00","21","male","right","48","59","41","11","0","","","","","test","happy","fear","h","true"
"null","<div style=""font-size:60px;"">+</div>","null","html-keyboard-response","33","135155","0.0-9.0-0.12","2nkjjp","Mon Feb 07 2022 20:05:58 GMT+0100 (Centraleuropæisk normaltid)","2022","2","7","20","5","58","EL00","21","male","right","48","59","41","11","0","","","","","fixation","","","",""
"688.9000000059605","img/image_stim_h_stroop.png","72","image-keyboard-response","34","135846","0.0-9.0-1.12","2nkjjp","Mon Feb 07 2022 20:05:58 GMT+0100 (Centraleuropæisk normaltid)","2022","2","7","20","5","58","EL00","21","male","right","48","59","41","11","0","","","","","test","happy","fear","h","true"
"null","<div style=""font-size:60px;"">+</div>","null","html-keyboard-response","35","137625","0.0-9.0-0.13","2nkjjp","Mon Feb 07 2022 20:05:58 GMT+0100 (Centraleuropæisk normaltid)","2022","2","7","20","5","58","EL00","21","male","right","48","59","41","11","0","","","","","fixation","","","",""
"495.40000000596046","img/image_stim_f_stroop.png","70","image-keyboard-response","36","138123","0.0-9.0-1.13","2nkjjp","Mon Feb 07 2022 20:05:58 GMT+0100 (Centraleuropæisk normaltid)","2022","2","7","20","5","58","EL00","21","male","right","48","59","41","11","0","","","","","test","fear","happy","f","true"
"null","<div style=""font-size:60px;"">+</div>","null","html-keyboard-response","37","138632","0.0-9.0-0.14","2nkjjp","Mon Feb 07 2022 20:05:58 GMT+0100 (Centraleuropæisk normaltid)","2022","2","7","20","5","58","EL00","21","male","right","48","59","41","11","0","","","","","fixation","","","",""
"563.1999999880791","img/image_stim_h.png","72","image-keyboard-response","38","139197","0.0-9.0-1.14","2nkjjp","Mon Feb 07 2022 20:05:58 GMT+0100 (Centraleuropæisk normaltid)","2022","2","7","20","5","58","EL00","21","male","right","48","59","41","11","0","","","","","test","happy","happy","h","true"
"null","<div style=""font-size:60px;"">+</div>","null","html-keyboard-response","39","139958","0.0-9.0-0.15","2nkjjp","Mon Feb 07 2022 20:05:58 GMT+0100 (Centraleuropæisk normaltid)","2022","2","7","20","5","58","EL00","21","male","right","48","59","41","11","0","","","","","fixation","","","",""
"580.5999999940395","img/image_stim_f.png","70","image-keyboard-response","40","140541","0.0-9.0-1.15","2nkjjp","Mon Feb 07 2022 20:05:58 GMT+0100 (Centraleuropæisk normaltid)","2022","2","7","20","5","58","EL00","21","male","right","48","59","41","11","0","","","","","test","fear","fear","f","true"
"null","<div style=""font-size:60px;"">+</div>","null","html-keyboard-response","41","140802","0.0-9.0-0.16","2nkjjp","Mon Feb 07 2022 20:05:58 GMT+0100 (Centraleuropæisk normaltid)","2022","2","7","20","5","58","EL00","21","male","right","48","59","41","11","0","","","","","fixation","","","",""
"546.5","img/image_stim_h_stroop.png","72","image-keyboard-response","42","141352","0.0-9.0-1.16","2nkjjp","Mon Feb 07 2022 20:05:58 GMT+0100 (Centraleuropæisk normaltid)","2022","2","7","20","5","58","EL00","21","male","right","48","59","41","11","0","","","","","test","happy","fear","h","true"
"null","<div style=""font-size:60px;"">+</div>","null","html-keyboard-response","43","142362","0.0-9.0-0.17","2nkjjp","Mon Feb 07 2022 20:05:58 GMT+0100 (Centraleuropæisk normaltid)","2022","2","7","20","5","58","EL00","21","male","right","48","59","41","11","0","","","","","fixation","","","",""
"497.40000000596046","img/image_stim_f_stroop.png","72","image-keyboard-response","44","142862","0.0-9.0-1.17","2nkjjp","Mon Feb 07 2022 20:05:58 GMT+0100 (Centraleuropæisk normaltid)","2022","2","7","20","5","58","EL00","21","male","right","48","59","41","11","0","","","","","test","fear","happy","f","false"
"null","<div style=""font-size:60px;"">+</div>","null","html-keyboard-response","45","143627","0.0-9.0-0.18","2nkjjp","Mon Feb 07 2022 20:05:58 GMT+0100 (Centraleuropæisk normaltid)","2022","2","7","20","5","58","EL00","21","male","right","48","59","41","11","0","","","","","fixation","","","",""
"727.8999999761581","img/image_stim_h.png","72","image-keyboard-response","46","144358","0.0-9.0-1.18","2nkjjp","Mon Feb 07 2022 20:05:58 GMT+0100 (Centraleuropæisk normaltid)","2022","2","7","20","5","58","EL00","21","male","right","48","59","41","11","0","","","","","test","happy","happy","h","true"
"null","<div style=""font-size:60px;"">+</div>","null","html-keyboard-response","47","145868","0.0-9.0-0.19","2nkjjp","Mon Feb 07 2022 20:05:58 GMT+0100 (Centraleuropæisk normaltid)","2022","2","7","20","5","58","EL00","21","male","right","48","59","41","11","0","","","","","fixation","","","",""
"421.39999997615814","img/image_stim_f.png","70","image-keyboard-response","48","146292","0.0-9.0-1.19","2nkjjp","Mon Feb 07 2022 20:05:58 GMT+0100 (Centraleuropæisk normaltid)","2022","2","7","20","5","58","EL00","21","male","right","48","59","41","11","0","","","","","test","fear","fear","f","true"
"null","<div style=""font-size:60px;"">+</div>","null","html-keyboard-response","49","147805","0.0-9.0-0.20","2nkjjp","Mon Feb 07 2022 20:05:58 GMT+0100 (Centraleuropæisk normaltid)","2022","2","7","20","5","58","EL00","21","male","right","48","59","41","11","0","","","","","fixation","","","",""
"697.9000000059605","img/image_stim_h.png","72","image-keyboard-response","50","148505","0.0-9.0-1.20","2nkjjp","Mon Feb 07 2022 20:05:58 GMT+0100 (Centraleuropæisk normaltid)","2022","2","7","20","5","58","EL00","21","male","right","48","59","41","11","0","","","","","test","happy","happy","h","true"
"null","<div style=""font-size:60px;"">+</div>","null","html-keyboard-response","51","150266","0.0-9.0-0.21","2nkjjp","Mon Feb 07 2022 20:05:58 GMT+0100 (Centraleuropæisk normaltid)","2022","2","7","20","5","58","EL00","21","male","right","48","59","41","11","0","","","","","fixation","","","",""
"1203.300000011921","img/image_stim_h_stroop.png","72","image-keyboard-response","52","151472","0.0-9.0-1.21","2nkjjp","Mon Feb 07 2022 20:05:58 GMT+0100 (Centraleuropæisk normaltid)","2022","2","7","20","5","58","EL00","21","male","right","48","59","41","11","0","","","","","test","happy","fear","h","true"
"null","<div style=""font-size:60px;"">+</div>","null","html-keyboard-response","53","152736","0.0-9.0-0.22","2nkjjp","Mon Feb 07 2022 20:05:58 GMT+0100 (Centraleuropæisk normaltid)","2022","2","7","20","5","58","EL00","21","male","right","48","59","41","11","0","","","","","fixation","","","",""
"869.4000000059605","img/image_stim_f.png","70","image-keyboard-response","54","153607","0.0-9.0-1.22","2nkjjp","Mon Feb 07 2022 20:05:58 GMT+0100 (Centraleuropæisk normaltid)","2022","2","7","20","5","58","EL00","21","male","right","48","59","41","11","0","","","","","test","fear","fear","f","true"
"null","<div style=""font-size:60px;"">+</div>","null","html-keyboard-response","55","154621","0.0-9.0-0.23","2nkjjp","Mon Feb 07 2022 20:05:58 GMT+0100 (Centraleuropæisk normaltid)","2022","2","7","20","5","58","EL00","21","male","right","48","59","41","11","0","","","","","fixation","","","",""
"904.5999999940395","img/image_stim_f_stroop.png","72","image-keyboard-response","56","155527","0.0-9.0-1.23","2nkjjp","Mon Feb 07 2022 20:05:58 GMT+0100 (Centraleuropæisk normaltid)","2022","2","7","20","5","58","EL00","21","male","right","48","59","41","11","0","","","","","test","fear","happy","f","false"
"null","<div style=""font-size:60px;"">+</div>","null","html-keyboard-response","57","155792","0.0-9.0-0.24","2nkjjp","Mon Feb 07 2022 20:05:58 GMT+0100 (Centraleuropæisk normaltid)","2022","2","7","20","5","58","EL00","21","male","right","48","59","41","11","0","","","","","fixation","","","",""
"3741.7000000178814","img/image_stim_f.png","70","image-keyboard-response","58","159536","0.0-9.0-1.24","2nkjjp","Mon Feb 07 2022 20:05:58 GMT+0100 (Centraleuropæisk normaltid)","2022","2","7","20","5","58","EL00","21","male","right","48","59","41","11","0","","","","","test","fear","fear","f","true"
"null","<div style=""font-size:60px;"">+</div>","null","html-keyboard-response","59","161300","0.0-9.0-0.25","2nkjjp","Mon Feb 07 2022 20:05:58 GMT+0100 (Centraleuropæisk normaltid)","2022","2","7","20","5","58","EL00","21","male","right","48","59","41","11","0","","","","","fixation","","","",""
"993.8000000119209","img/image_stim_h_stroop.png","72","image-keyboard-response","60","162298","0.0-9.0-1.25","2nkjjp","Mon Feb 07 2022 20:05:58 GMT+0100 (Centraleuropæisk normaltid)","2022","2","7","20","5","58","EL00","21","male","right","48","59","41","11","0","","","","","test","happy","fear","h","true"
"null","<div style=""font-size:60px;"">+</div>","null","html-keyboard-response","61","164310","0.0-9.0-0.26","2nkjjp","Mon Feb 07 2022 20:05:58 GMT+0100 (Centraleuropæisk normaltid)","2022","2","7","20","5","58","EL00","21","male","right","48","59","41","11","0","","","","","fixation","","","",""
"700.7999999821186","img/image_stim_h.png","72","image-keyboard-response","62","165013","0.0-9.0-1.26","2nkjjp","Mon Feb 07 2022 20:05:58 GMT+0100 (Centraleuropæisk normaltid)","2022","2","7","20","5","58","EL00","21","male","right","48","59","41","11","0","","","","","test","happy","happy","h","true"
"null","<div style=""font-size:60px;"">+</div>","null","html-keyboard-response","63","165777","0.0-9.0-0.27","2nkjjp","Mon Feb 07 2022 20:05:58 GMT+0100 (Centraleuropæisk normaltid)","2022","2","7","20","5","58","EL00","21","male","right","48","59","41","11","0","","","","","fixation","","","",""
"831.1999999880791","img/image_stim_f_stroop.png","70","image-keyboard-response","64","166611","0.0-9.0-1.27","2nkjjp","Mon Feb 07 2022 20:05:58 GMT+0100 (Centraleuropæisk normaltid)","2022","2","7","20","5","58","EL00","21","male","right","48","59","41","11","0","","","","","test","fear","happy","f","true"
"null","<div style=""font-size:60px;"">+</div>","null","html-keyboard-response","65","166874","0.0-9.0-0.28","2nkjjp","Mon Feb 07 2022 20:05:58 GMT+0100 (Centraleuropæisk normaltid)","2022","2","7","20","5","58","EL00","21","male","right","48","59","41","11","0","","","","","fixation","","","",""
"793.9000000059605","img/image_stim_f.png","70","image-keyboard-response","66","167670","0.0-9.0-1.28","2nkjjp","Mon Feb 07 2022 20:05:58 GMT+0100 (Centraleuropæisk normaltid)","2022","2","7","20","5","58","EL00","21","male","right","48","59","41","11","0","","","","","test","fear","fear","f","true"
"null","<div style=""font-size:60px;"">+</div>","null","html-keyboard-response","67","168181","0.0-9.0-0.29","2nkjjp","Mon Feb 07 2022 20:05:58 GMT+0100 (Centraleuropæisk normaltid)","2022","2","7","20","5","58","EL00","21","male","right","48","59","41","11","0","","","","","fixation","","","",""
"533.3000000119209","img/image_stim_h.png","72","image-keyboard-response","68","168717","0.0-9.0-1.29","2nkjjp","Mon Feb 07 2022 20:05:58 GMT+0100 (Centraleuropæisk normaltid)","2022","2","7","20","5","58","EL00","21","male","right","48","59","41","11","0","","","","","test","happy","happy","h","true"
"null","<div style=""font-size:60px;"">+</div>","null","html-keyboard-response","69","169483","0.0-9.0-0.30","2nkjjp","Mon Feb 07 2022 20:05:58 GMT+0100 (Centraleuropæisk normaltid)","2022","2","7","20","5","58","EL00","21","male","right","48","59","41","11","0","","","","","fixation","","","",""
"488.40000000596046","img/image_stim_f_stroop.png","70","image-keyboard-response","70","169974","0.0-9.0-1.30","2nkjjp","Mon Feb 07 2022 20:05:58 GMT+0100 (Centraleuropæisk normaltid)","2022","2","7","20","5","58","EL00","21","male","right","48","59","41","11","0","","","","","test","fear","happy","f","true"
"null","<div style=""font-size:60px;"">+</div>","null","html-keyboard-response","71","170485","0.0-9.0-0.31","2nkjjp","Mon Feb 07 2022 20:05:58 GMT+0100 (Centraleuropæisk normaltid)","2022","2","7","20","5","58","EL00","21","male","right","48","59","41","11","0","","","","","fixation","","","",""
"643.7000000178814","img/image_stim_h_stroop.png","72","image-keyboard-response","72","171131","0.0-9.0-1.31","2nkjjp","Mon Feb 07 2022 20:05:58 GMT+0100 (Centraleuropæisk normaltid)","2022","2","7","20","5","58","EL00","21","male","right","48","59","41","11","0","","","","","test","happy","fear","h","true"
"null","<div style=""font-size:60px;"">+</div>","null","html-keyboard-response","73","171644","0.0-9.0-0.32","2nkjjp","Mon Feb 07 2022 20:05:58 GMT+0100 (Centraleuropæisk normaltid)","2022","2","7","20","5","58","EL00","21","male","right","48","59","41","11","0","","","","","fixation","","","",""
"506.59999999403954","img/image_stim_f_stroop.png","70","image-keyboard-response","74","172153","0.0-9.0-1.32","2nkjjp","Mon Feb 07 2022 20:05:58 GMT+0100 (Centraleuropæisk normaltid)","2022","2","7","20","5","58","EL00","21","male","right","48","59","41","11","0","","","","","test","fear","happy","f","true"
"null","<div style=""font-size:60px;"">+</div>","null","html-keyboard-response","75","173664","0.0-9.0-0.33","2nkjjp","Mon Feb 07 2022 20:05:58 GMT+0100 (Centraleuropæisk normaltid)","2022","2","7","20","5","58","EL00","21","male","right","48","59","41","11","0","","","","","fixation","","","",""
"486.59999999403954","img/image_stim_f.png","70","image-keyboard-response","76","174153","0.0-9.0-1.33","2nkjjp","Mon Feb 07 2022 20:05:58 GMT+0100 (Centraleuropæisk normaltid)","2022","2","7","20","5","58","EL00","21","male","right","48","59","41","11","0","","","","","test","fear","fear","f","true"
"null","<div style=""font-size:60px;"">+</div>","null","html-keyboard-response","77","175666","0.0-9.0-0.34","2nkjjp","Mon Feb 07 2022 20:05:58 GMT+0100 (Centraleuropæisk normaltid)","2022","2","7","20","5","58","EL00","21","male","right","48","59","41","11","0","","","","","fixation","","","",""
"530.5","img/image_stim_h_stroop.png","72","image-keyboard-response","78","176199","0.0-9.0-1.34","2nkjjp","Mon Feb 07 2022 20:05:58 GMT+0100 (Centraleuropæisk normaltid)","2022","2","7","20","5","58","EL00","21","male","right","48","59","41","11","0","","","","","test","happy","fear","h","true"
"null","<div style=""font-size:60px;"">+</div>","null","html-keyboard-response","79","176963","0.0-9.0-0.35","2nkjjp","Mon Feb 07 2022 20:05:58 GMT+0100 (Centraleuropæisk normaltid)","2022","2","7","20","5","58","EL00","21","male","right","48","59","41","11","0","","","","","fixation","","","",""
"689.3999999761581","img/image_stim_h.png","72","image-keyboard-response","80","177655","0.0-9.0-1.35","2nkjjp","Mon Feb 07 2022 20:05:58 GMT+0100 (Centraleuropæisk normaltid)","2022","2","7","20","5","58","EL00","21","male","right","48","59","41","11","0","","","","","test","happy","happy","h","true"
