"rt","stimulus","key_press","trial_type","trial_index","time_elapsed","internal_node_id","exp_id","Time","year","month","date","hour","minute","seconds","id","age","Gender","Handedness","mood","fresh","hunger","H_since_Sleep","H_since_Eat","responses","question_order","slider_start","response","test_part","face","word","correct_response","correct"
"1511.305000021821","<p>Welcome to this experiment on daily rhythms and cognition.</p><p>First you will be asked some questions about yourself.</p><p>Then a short experiment will measure your response time.</p><p>Take the test at different times of the day/night.</p><p>The test is anonymous, but comparing your data across time is important.</p><p>Therefore, please make up and remember a personal ID (two letters+ two numbers).</p><p>Use this ID whenever taking the test.</p><p><strong>Press any key to begin.</strong></p>","32","html-keyboard-response","0","1513","0.0-0.0","k9ys99","Sat Feb 13 2021 21:19:31 GMT+0100 (Centraleuropæisk normaltid)","2021","2","13","21","19","31","uc11","21","male","right","61","40","95","13","1","","","","","","","","",""
"6074.055000004591","","","survey-text","1","7592","0.0-1.0","k9ys99","Sat Feb 13 2021 21:19:31 GMT+0100 (Centraleuropæisk normaltid)","2021","2","13","21","19","31","uc11","21","male","right","61","40","95","13","1","{""Q0"":""uc11""}","","","","","","","",""
"3219.760000007227","","","survey-text","2","10815","0.0-2.0","k9ys99","Sat Feb 13 2021 21:19:31 GMT+0100 (Centraleuropæisk normaltid)","2021","2","13","21","19","31","uc11","21","male","right","61","40","95","13","1","{""Q0"":""21""}","","","","","","","",""
"3538.0149999982677","","","survey-multi-select","3","14357","0.0-3.0","k9ys99","Sat Feb 13 2021 21:19:31 GMT+0100 (Centraleuropæisk normaltid)","2021","2","13","21","19","31","uc11","21","male","right","61","40","95","13","1","{""Gender"":[""male""],""Hand"":[""right""]}","[0,1]","","","","","","",""
"17157.88500002236","<p>How Sad/Angry or Happy are you right now?</p>","","html-slider-response","4","31517","0.0-4.0","k9ys99","Sat Feb 13 2021 21:19:31 GMT+0100 (Centraleuropæisk normaltid)","2021","2","13","21","19","31","uc11","21","male","right","61","40","95","13","1","","","50","61","","","","",""
"11489.650000003166","<p>How Tired/Sleepy/Distracted or Fresh/Awake/Alert are you right now?</p>","","html-slider-response","5","43008","0.0-5.0","k9ys99","Sat Feb 13 2021 21:19:31 GMT+0100 (Centraleuropæisk normaltid)","2021","2","13","21","19","31","uc11","21","male","right","61","40","95","13","1","","","50","40","","","","",""
"10374.609999998938","<p>How Hungry or Satiated are you right now?</p>","","html-slider-response","6","53383","0.0-6.0","k9ys99","Sat Feb 13 2021 21:19:31 GMT+0100 (Centraleuropæisk normaltid)","2021","2","13","21","19","31","uc11","21","male","right","61","40","95","13","1","","","50","95","","","","",""
"35845.4550000024","","","survey-multi-select","7","89240","0.0-7.0","k9ys99","Sat Feb 13 2021 21:19:31 GMT+0100 (Centraleuropæisk normaltid)","2021","2","13","21","19","31","uc11","21","male","right","61","40","95","13","1","{""Sleep"":[""13""],""Eat"":[""1""]}","[0,1]","","","","","","",""
"10912.714999984019","<p>In this experiment, a face and a word will appear in the center of the screen.</p><p>If the face is <strong>happy</strong>, press the letter <strong>H</strong> with <strong>right</strong> index finger.</p><p>If the face is <strong>fearful</strong>, press the letter <strong>F</strong> with <strong>left</strong> index finger.</p><p><strong>Ignore the written words</strong>. Respond as fast as possible while being correct. </p><div style='width: 900px;'><div style='float: left;'><img src='img/stimuli_stroop_happy.png'></img><p class='small'><strong>Press the H key for happy faces</strong></p></div><div class='float: right;'><img src='img/stimuli_stroop_fear.png'></img><p class='small'><strong>Press the F key for faces with fear</strong></p></div></div><p>If the screen turns blank, press <strong>SPACE</strong></p><p><strong>Press any key to begin.</strong></p>","32","html-keyboard-response","8","100154","0.0-8.0","k9ys99","Sat Feb 13 2021 21:19:31 GMT+0100 (Centraleuropæisk normaltid)","2021","2","13","21","19","31","uc11","21","male","right","61","40","95","13","1","","","","","","","","",""
"null","<div style=""font-size:60px;"">+</div>","null","html-keyboard-response","9","103158","0.0-9.0-0.0","k9ys99","Sat Feb 13 2021 21:19:31 GMT+0100 (Centraleuropæisk normaltid)","2021","2","13","21","19","31","uc11","21","male","right","61","40","95","13","1","","","","","fixation","","","",""
"548.4249999863096","img/image_stim_h.png","72","image-keyboard-response","10","103739","0.0-9.0-1.0","k9ys99","Sat Feb 13 2021 21:19:31 GMT+0100 (Centraleuropæisk normaltid)","2021","2","13","21","19","31","uc11","21","male","right","61","40","95","13","1","","","","","test","happy","happy","h","true"
"null","<div style=""font-size:60px;"">+</div>","null","html-keyboard-response","11","104498","0.0-9.0-0.1","k9ys99","Sat Feb 13 2021 21:19:31 GMT+0100 (Centraleuropæisk normaltid)","2021","2","13","21","19","31","uc11","21","male","right","61","40","95","13","1","","","","","fixation","","","",""
"432.6299999956973","img/image_stim_f.png","70","image-keyboard-response","12","104933","0.0-9.0-1.1","k9ys99","Sat Feb 13 2021 21:19:31 GMT+0100 (Centraleuropæisk normaltid)","2021","2","13","21","19","31","uc11","21","male","right","61","40","95","13","1","","","","","test","fear","fear","f","true"
"null","<div style=""font-size:60px;"">+</div>","null","html-keyboard-response","13","106440","0.0-9.0-0.2","k9ys99","Sat Feb 13 2021 21:19:31 GMT+0100 (Centraleuropæisk normaltid)","2021","2","13","21","19","31","uc11","21","male","right","61","40","95","13","1","","","","","fixation","","","",""
"651.9550000084564","img/image_stim_f_stroop.png","70","image-keyboard-response","14","107094","0.0-9.0-1.2","k9ys99","Sat Feb 13 2021 21:19:31 GMT+0100 (Centraleuropæisk normaltid)","2021","2","13","21","19","31","uc11","21","male","right","61","40","95","13","1","","","","","test","fear","happy","f","true"
"null","<div style=""font-size:60px;"">+</div>","null","html-keyboard-response","15","108101","0.0-9.0-0.3","k9ys99","Sat Feb 13 2021 21:19:31 GMT+0100 (Centraleuropæisk normaltid)","2021","2","13","21","19","31","uc11","21","male","right","61","40","95","13","1","","","","","fixation","","","",""
"484.1149999992922","img/image_stim_h_stroop.png","72","image-keyboard-response","16","108588","0.0-9.0-1.3","k9ys99","Sat Feb 13 2021 21:19:31 GMT+0100 (Centraleuropæisk normaltid)","2021","2","13","21","19","31","uc11","21","male","right","61","40","95","13","1","","","","","test","happy","fear","h","true"
"null","<div style=""font-size:60px;"">+</div>","null","html-keyboard-response","17","109095","0.0-9.0-0.4","k9ys99","Sat Feb 13 2021 21:19:31 GMT+0100 (Centraleuropæisk normaltid)","2021","2","13","21","19","31","uc11","21","male","right","61","40","95","13","1","","","","","fixation","","","",""
"467.1399999933783","img/image_stim_h_stroop.png","72","image-keyboard-response","18","109565","0.0-9.0-1.4","k9ys99","Sat Feb 13 2021 21:19:31 GMT+0100 (Centraleuropæisk normaltid)","2021","2","13","21","19","31","uc11","21","male","right","61","40","95","13","1","","","","","test","happy","fear","h","true"
"null","<div style=""font-size:60px;"">+</div>","null","html-keyboard-response","19","110072","0.0-9.0-0.5","k9ys99","Sat Feb 13 2021 21:19:31 GMT+0100 (Centraleuropæisk normaltid)","2021","2","13","21","19","31","uc11","21","male","right","61","40","95","13","1","","","","","fixation","","","",""
"434.30500000249594","img/image_stim_h.png","72","image-keyboard-response","20","110509","0.0-9.0-1.5","k9ys99","Sat Feb 13 2021 21:19:31 GMT+0100 (Centraleuropæisk normaltid)","2021","2","13","21","19","31","uc11","21","male","right","61","40","95","13","1","","","","","test","happy","happy","h","true"
"null","<div style=""font-size:60px;"">+</div>","null","html-keyboard-response","21","112515","0.0-9.0-0.6","k9ys99","Sat Feb 13 2021 21:19:31 GMT+0100 (Centraleuropæisk normaltid)","2021","2","13","21","19","31","uc11","21","male","right","61","40","95","13","1","","","","","fixation","","","",""
"490.23500000475906","img/image_stim_f_stroop.png","70","image-keyboard-response","22","113009","0.0-9.0-1.6","k9ys99","Sat Feb 13 2021 21:19:31 GMT+0100 (Centraleuropæisk normaltid)","2021","2","13","21","19","31","uc11","21","male","right","61","40","95","13","1","","","","","test","fear","happy","f","true"
"null","<div style=""font-size:60px;"">+</div>","null","html-keyboard-response","23","114020","0.0-9.0-0.7","k9ys99","Sat Feb 13 2021 21:19:31 GMT+0100 (Centraleuropæisk normaltid)","2021","2","13","21","19","31","uc11","21","male","right","61","40","95","13","1","","","","","fixation","","","",""
"400.5349999933969","img/image_stim_f.png","70","image-keyboard-response","24","114423","0.0-9.0-1.7","k9ys99","Sat Feb 13 2021 21:19:31 GMT+0100 (Centraleuropæisk normaltid)","2021","2","13","21","19","31","uc11","21","male","right","61","40","95","13","1","","","","","test","fear","fear","f","true"
"null","<div style=""font-size:60px;"">+</div>","null","html-keyboard-response","25","115429","0.0-9.0-0.8","k9ys99","Sat Feb 13 2021 21:19:31 GMT+0100 (Centraleuropæisk normaltid)","2021","2","13","21","19","31","uc11","21","male","right","61","40","95","13","1","","","","","fixation","","","",""
"400.8599999942817","img/image_stim_f.png","70","image-keyboard-response","26","115833","0.0-9.0-1.8","k9ys99","Sat Feb 13 2021 21:19:31 GMT+0100 (Centraleuropæisk normaltid)","2021","2","13","21","19","31","uc11","21","male","right","61","40","95","13","1","","","","","test","fear","fear","f","true"
"null","<div style=""font-size:60px;"">+</div>","null","html-keyboard-response","27","117089","0.0-9.0-0.9","k9ys99","Sat Feb 13 2021 21:19:31 GMT+0100 (Centraleuropæisk normaltid)","2021","2","13","21","19","31","uc11","21","male","right","61","40","95","13","1","","","","","fixation","","","",""
"455.35999999265186","img/image_stim_f_stroop.png","70","image-keyboard-response","28","117547","0.0-9.0-1.9","k9ys99","Sat Feb 13 2021 21:19:31 GMT+0100 (Centraleuropæisk normaltid)","2021","2","13","21","19","31","uc11","21","male","right","61","40","95","13","1","","","","","test","fear","happy","f","true"
"null","<div style=""font-size:60px;"">+</div>","null","html-keyboard-response","29","118303","0.0-9.0-0.10","k9ys99","Sat Feb 13 2021 21:19:31 GMT+0100 (Centraleuropæisk normaltid)","2021","2","13","21","19","31","uc11","21","male","right","61","40","95","13","1","","","","","fixation","","","",""
"439.5950000034645","img/image_stim_h.png","72","image-keyboard-response","30","118744","0.0-9.0-1.10","k9ys99","Sat Feb 13 2021 21:19:31 GMT+0100 (Centraleuropæisk normaltid)","2021","2","13","21","19","31","uc11","21","male","right","61","40","95","13","1","","","","","test","happy","happy","h","true"
"null","<div style=""font-size:60px;"">+</div>","null","html-keyboard-response","31","119751","0.0-9.0-0.11","k9ys99","Sat Feb 13 2021 21:19:31 GMT+0100 (Centraleuropæisk normaltid)","2021","2","13","21","19","31","uc11","21","male","right","61","40","95","13","1","","","","","fixation","","","",""
"429.0700000128709","img/image_stim_h_stroop.png","72","image-keyboard-response","32","120183","0.0-9.0-1.11","k9ys99","Sat Feb 13 2021 21:19:31 GMT+0100 (Centraleuropæisk normaltid)","2021","2","13","21","19","31","uc11","21","male","right","61","40","95","13","1","","","","","test","happy","fear","h","true"
"null","<div style=""font-size:60px;"">+</div>","null","html-keyboard-response","33","120689","0.0-9.0-0.12","k9ys99","Sat Feb 13 2021 21:19:31 GMT+0100 (Centraleuropæisk normaltid)","2021","2","13","21","19","31","uc11","21","male","right","61","40","95","13","1","","","","","fixation","","","",""
"413.6350000044331","img/image_stim_f_stroop.png","70","image-keyboard-response","34","121105","0.0-9.0-1.12","k9ys99","Sat Feb 13 2021 21:19:31 GMT+0100 (Centraleuropæisk normaltid)","2021","2","13","21","19","31","uc11","21","male","right","61","40","95","13","1","","","","","test","fear","happy","f","true"
"null","<div style=""font-size:60px;"">+</div>","null","html-keyboard-response","35","122863","0.0-9.0-0.13","k9ys99","Sat Feb 13 2021 21:19:31 GMT+0100 (Centraleuropæisk normaltid)","2021","2","13","21","19","31","uc11","21","male","right","61","40","95","13","1","","","","","fixation","","","",""
"376.1250000097789","img/image_stim_f.png","70","image-keyboard-response","36","123243","0.0-9.0-1.13","k9ys99","Sat Feb 13 2021 21:19:31 GMT+0100 (Centraleuropæisk normaltid)","2021","2","13","21","19","31","uc11","21","male","right","61","40","95","13","1","","","","","test","fear","fear","f","true"
"null","<div style=""font-size:60px;"">+</div>","null","html-keyboard-response","37","125001","0.0-9.0-0.14","k9ys99","Sat Feb 13 2021 21:19:31 GMT+0100 (Centraleuropæisk normaltid)","2021","2","13","21","19","31","uc11","21","male","right","61","40","95","13","1","","","","","fixation","","","",""
"445.63999999081716","img/image_stim_h_stroop.png","72","image-keyboard-response","38","125450","0.0-9.0-1.14","k9ys99","Sat Feb 13 2021 21:19:31 GMT+0100 (Centraleuropæisk normaltid)","2021","2","13","21","19","31","uc11","21","male","right","61","40","95","13","1","","","","","test","happy","fear","h","true"
"null","<div style=""font-size:60px;"">+</div>","null","html-keyboard-response","39","127457","0.0-9.0-0.15","k9ys99","Sat Feb 13 2021 21:19:31 GMT+0100 (Centraleuropæisk normaltid)","2021","2","13","21","19","31","uc11","21","male","right","61","40","95","13","1","","","","","fixation","","","",""
"371.3200000056531","img/image_stim_h.png","72","image-keyboard-response","40","127831","0.0-9.0-1.15","k9ys99","Sat Feb 13 2021 21:19:31 GMT+0100 (Centraleuropæisk normaltid)","2021","2","13","21","19","31","uc11","21","male","right","61","40","95","13","1","","","","","test","happy","happy","h","true"
"null","<div style=""font-size:60px;"">+</div>","null","html-keyboard-response","41","128088","0.0-9.0-0.16","k9ys99","Sat Feb 13 2021 21:19:31 GMT+0100 (Centraleuropæisk normaltid)","2021","2","13","21","19","31","uc11","21","male","right","61","40","95","13","1","","","","","fixation","","","",""
"438.1449999928009","img/image_stim_f.png","70","image-keyboard-response","42","128529","0.0-9.0-1.16","k9ys99","Sat Feb 13 2021 21:19:31 GMT+0100 (Centraleuropæisk normaltid)","2021","2","13","21","19","31","uc11","21","male","right","61","40","95","13","1","","","","","test","fear","fear","f","true"
"null","<div style=""font-size:60px;"">+</div>","null","html-keyboard-response","43","129289","0.0-9.0-0.17","k9ys99","Sat Feb 13 2021 21:19:31 GMT+0100 (Centraleuropæisk normaltid)","2021","2","13","21","19","31","uc11","21","male","right","61","40","95","13","1","","","","","fixation","","","",""
"545.8100000105333","img/image_stim_f_stroop.png","70","image-keyboard-response","44","129838","0.0-9.0-1.17","k9ys99","Sat Feb 13 2021 21:19:31 GMT+0100 (Centraleuropæisk normaltid)","2021","2","13","21","19","31","uc11","21","male","right","61","40","95","13","1","","","","","test","fear","happy","f","true"
"null","<div style=""font-size:60px;"">+</div>","null","html-keyboard-response","45","130597","0.0-9.0-0.18","k9ys99","Sat Feb 13 2021 21:19:31 GMT+0100 (Centraleuropæisk normaltid)","2021","2","13","21","19","31","uc11","21","male","right","61","40","95","13","1","","","","","fixation","","","",""
"438.2599999953527","img/image_stim_h.png","72","image-keyboard-response","46","131038","0.0-9.0-1.18","k9ys99","Sat Feb 13 2021 21:19:31 GMT+0100 (Centraleuropæisk normaltid)","2021","2","13","21","19","31","uc11","21","male","right","61","40","95","13","1","","","","","test","happy","happy","h","true"
"null","<div style=""font-size:60px;"">+</div>","null","html-keyboard-response","47","132546","0.0-9.0-0.19","k9ys99","Sat Feb 13 2021 21:19:31 GMT+0100 (Centraleuropæisk normaltid)","2021","2","13","21","19","31","uc11","21","male","right","61","40","95","13","1","","","","","fixation","","","",""
"647.2850000136532","img/image_stim_h_stroop.png","72","image-keyboard-response","48","133197","0.0-9.0-1.19","k9ys99","Sat Feb 13 2021 21:19:31 GMT+0100 (Centraleuropæisk normaltid)","2021","2","13","21","19","31","uc11","21","male","right","61","40","95","13","1","","","","","test","happy","fear","h","true"
"null","<div style=""font-size:60px;"">+</div>","null","html-keyboard-response","49","133456","0.0-9.0-0.20","k9ys99","Sat Feb 13 2021 21:19:31 GMT+0100 (Centraleuropæisk normaltid)","2021","2","13","21","19","31","uc11","21","male","right","61","40","95","13","1","","","","","fixation","","","",""
"485.9450000221841","img/image_stim_h.png","72","image-keyboard-response","50","133945","0.0-9.0-1.20","k9ys99","Sat Feb 13 2021 21:19:31 GMT+0100 (Centraleuropæisk normaltid)","2021","2","13","21","19","31","uc11","21","male","right","61","40","95","13","1","","","","","test","happy","happy","h","true"
"null","<div style=""font-size:60px;"">+</div>","null","html-keyboard-response","51","135954","0.0-9.0-0.21","k9ys99","Sat Feb 13 2021 21:19:31 GMT+0100 (Centraleuropæisk normaltid)","2021","2","13","21","19","31","uc11","21","male","right","61","40","95","13","1","","","","","fixation","","","",""
"378.06000001728535","img/image_stim_f_stroop.png","70","image-keyboard-response","52","136335","0.0-9.0-1.21","k9ys99","Sat Feb 13 2021 21:19:31 GMT+0100 (Centraleuropæisk normaltid)","2021","2","13","21","19","31","uc11","21","male","right","61","40","95","13","1","","","","","test","fear","happy","f","true"
"null","<div style=""font-size:60px;"">+</div>","null","html-keyboard-response","53","138343","0.0-9.0-0.22","k9ys99","Sat Feb 13 2021 21:19:31 GMT+0100 (Centraleuropæisk normaltid)","2021","2","13","21","19","31","uc11","21","male","right","61","40","95","13","1","","","","","fixation","","","",""
"450.81500001833774","img/image_stim_f.png","70","image-keyboard-response","54","138798","0.0-9.0-1.22","k9ys99","Sat Feb 13 2021 21:19:31 GMT+0100 (Centraleuropæisk normaltid)","2021","2","13","21","19","31","uc11","21","male","right","61","40","95","13","1","","","","","test","fear","fear","f","true"
"null","<div style=""font-size:60px;"">+</div>","null","html-keyboard-response","55","139805","0.0-9.0-0.23","k9ys99","Sat Feb 13 2021 21:19:31 GMT+0100 (Centraleuropæisk normaltid)","2021","2","13","21","19","31","uc11","21","male","right","61","40","95","13","1","","","","","fixation","","","",""
"417.77999998885207","img/image_stim_h_stroop.png","72","image-keyboard-response","56","140226","0.0-9.0-1.23","k9ys99","Sat Feb 13 2021 21:19:31 GMT+0100 (Centraleuropæisk normaltid)","2021","2","13","21","19","31","uc11","21","male","right","61","40","95","13","1","","","","","test","happy","fear","h","true"
"null","<div style=""font-size:60px;"">+</div>","null","html-keyboard-response","57","140486","0.0-9.0-0.24","k9ys99","Sat Feb 13 2021 21:19:31 GMT+0100 (Centraleuropæisk normaltid)","2021","2","13","21","19","31","uc11","21","male","right","61","40","95","13","1","","","","","fixation","","","",""
"434.914999990724","img/image_stim_h_stroop.png","72","image-keyboard-response","58","140924","0.0-9.0-1.24","k9ys99","Sat Feb 13 2021 21:19:31 GMT+0100 (Centraleuropæisk normaltid)","2021","2","13","21","19","31","uc11","21","male","right","61","40","95","13","1","","","","","test","happy","fear","h","true"
"null","<div style=""font-size:60px;"">+</div>","null","html-keyboard-response","59","141434","0.0-9.0-0.25","k9ys99","Sat Feb 13 2021 21:19:31 GMT+0100 (Centraleuropæisk normaltid)","2021","2","13","21","19","31","uc11","21","male","right","61","40","95","13","1","","","","","fixation","","","",""
"499.04999998398125","img/image_stim_h.png","72","image-keyboard-response","60","141935","0.0-9.0-1.25","k9ys99","Sat Feb 13 2021 21:19:31 GMT+0100 (Centraleuropæisk normaltid)","2021","2","13","21","19","31","uc11","21","male","right","61","40","95","13","1","","","","","test","happy","happy","h","true"
"null","<div style=""font-size:60px;"">+</div>","null","html-keyboard-response","61","143197","0.0-9.0-0.26","k9ys99","Sat Feb 13 2021 21:19:31 GMT+0100 (Centraleuropæisk normaltid)","2021","2","13","21","19","31","uc11","21","male","right","61","40","95","13","1","","","","","fixation","","","",""
"533.2449999987148","img/image_stim_f_stroop.png","70","image-keyboard-response","62","143733","0.0-9.0-1.26","k9ys99","Sat Feb 13 2021 21:19:31 GMT+0100 (Centraleuropæisk normaltid)","2021","2","13","21","19","31","uc11","21","male","right","61","40","95","13","1","","","","","test","fear","happy","f","true"
"null","<div style=""font-size:60px;"">+</div>","null","html-keyboard-response","63","144491","0.0-9.0-0.27","k9ys99","Sat Feb 13 2021 21:19:31 GMT+0100 (Centraleuropæisk normaltid)","2021","2","13","21","19","31","uc11","21","male","right","61","40","95","13","1","","","","","fixation","","","",""
"519.0100000181701","img/image_stim_f.png","70","image-keyboard-response","64","145013","0.0-9.0-1.27","k9ys99","Sat Feb 13 2021 21:19:31 GMT+0100 (Centraleuropæisk normaltid)","2021","2","13","21","19","31","uc11","21","male","right","61","40","95","13","1","","","","","test","fear","fear","f","true"
"null","<div style=""font-size:60px;"">+</div>","null","html-keyboard-response","65","145772","0.0-9.0-0.28","k9ys99","Sat Feb 13 2021 21:19:31 GMT+0100 (Centraleuropæisk normaltid)","2021","2","13","21","19","31","uc11","21","male","right","61","40","95","13","1","","","","","fixation","","","",""
"488.34999999962747","img/image_stim_f.png","70","image-keyboard-response","66","146264","0.0-9.0-1.28","k9ys99","Sat Feb 13 2021 21:19:31 GMT+0100 (Centraleuropæisk normaltid)","2021","2","13","21","19","31","uc11","21","male","right","61","40","95","13","1","","","","","test","fear","fear","f","true"
"null","<div style=""font-size:60px;"">+</div>","null","html-keyboard-response","67","147525","0.0-9.0-0.29","k9ys99","Sat Feb 13 2021 21:19:31 GMT+0100 (Centraleuropæisk normaltid)","2021","2","13","21","19","31","uc11","21","male","right","61","40","95","13","1","","","","","fixation","","","",""
"467.7099999971688","img/image_stim_h.png","72","image-keyboard-response","68","147997","0.0-9.0-1.29","k9ys99","Sat Feb 13 2021 21:19:31 GMT+0100 (Centraleuropæisk normaltid)","2021","2","13","21","19","31","uc11","21","male","right","61","40","95","13","1","","","","","test","happy","happy","h","true"
"null","<div style=""font-size:60px;"">+</div>","null","html-keyboard-response","69","150015","0.0-9.0-0.30","k9ys99","Sat Feb 13 2021 21:19:31 GMT+0100 (Centraleuropæisk normaltid)","2021","2","13","21","19","31","uc11","21","male","right","61","40","95","13","1","","","","","fixation","","","",""
"449.39999998314306","img/image_stim_f_stroop.png","70","image-keyboard-response","70","150467","0.0-9.0-1.30","k9ys99","Sat Feb 13 2021 21:19:31 GMT+0100 (Centraleuropæisk normaltid)","2021","2","13","21","19","31","uc11","21","male","right","61","40","95","13","1","","","","","test","fear","happy","f","true"
"null","<div style=""font-size:60px;"">+</div>","null","html-keyboard-response","71","151729","0.0-9.0-0.31","k9ys99","Sat Feb 13 2021 21:19:31 GMT+0100 (Centraleuropæisk normaltid)","2021","2","13","21","19","31","uc11","21","male","right","61","40","95","13","1","","","","","fixation","","","",""
"493.7299999874085","img/image_stim_h_stroop.png","72","image-keyboard-response","72","152225","0.0-9.0-1.31","k9ys99","Sat Feb 13 2021 21:19:31 GMT+0100 (Centraleuropæisk normaltid)","2021","2","13","21","19","31","uc11","21","male","right","61","40","95","13","1","","","","","test","happy","fear","h","true"
"null","<div style=""font-size:60px;"">+</div>","null","html-keyboard-response","73","153485","0.0-9.0-0.32","k9ys99","Sat Feb 13 2021 21:19:31 GMT+0100 (Centraleuropæisk normaltid)","2021","2","13","21","19","31","uc11","21","male","right","61","40","95","13","1","","","","","fixation","","","",""
"476.7950000241399","img/image_stim_f_stroop.png","70","image-keyboard-response","74","153965","0.0-9.0-1.32","k9ys99","Sat Feb 13 2021 21:19:31 GMT+0100 (Centraleuropæisk normaltid)","2021","2","13","21","19","31","uc11","21","male","right","61","40","95","13","1","","","","","test","fear","happy","f","true"
"null","<div style=""font-size:60px;"">+</div>","null","html-keyboard-response","75","155227","0.0-9.0-0.33","k9ys99","Sat Feb 13 2021 21:19:31 GMT+0100 (Centraleuropæisk normaltid)","2021","2","13","21","19","31","uc11","21","male","right","61","40","95","13","1","","","","","fixation","","","",""
"516.4299999887589","img/image_stim_h.png","72","image-keyboard-response","76","155746","0.0-9.0-1.33","k9ys99","Sat Feb 13 2021 21:19:31 GMT+0100 (Centraleuropæisk normaltid)","2021","2","13","21","19","31","uc11","21","male","right","61","40","95","13","1","","","","","test","happy","happy","h","true"
"null","<div style=""font-size:60px;"">+</div>","null","html-keyboard-response","77","156505","0.0-9.0-0.34","k9ys99","Sat Feb 13 2021 21:19:31 GMT+0100 (Centraleuropæisk normaltid)","2021","2","13","21","19","31","uc11","21","male","right","61","40","95","13","1","","","","","fixation","","","",""
"420.4500000050757","img/image_stim_h_stroop.png","72","image-keyboard-response","78","156927","0.0-9.0-1.34","k9ys99","Sat Feb 13 2021 21:19:31 GMT+0100 (Centraleuropæisk normaltid)","2021","2","13","21","19","31","uc11","21","male","right","61","40","95","13","1","","","","","test","happy","fear","h","true"
"null","<div style=""font-size:60px;"">+</div>","null","html-keyboard-response","79","157188","0.0-9.0-0.35","k9ys99","Sat Feb 13 2021 21:19:31 GMT+0100 (Centraleuropæisk normaltid)","2021","2","13","21","19","31","uc11","21","male","right","61","40","95","13","1","","","","","fixation","","","",""
"467.4249999807216","img/image_stim_f.png","70","image-keyboard-response","80","157659","0.0-9.0-1.35","k9ys99","Sat Feb 13 2021 21:19:31 GMT+0100 (Centraleuropæisk normaltid)","2021","2","13","21","19","31","uc11","21","male","right","61","40","95","13","1","","","","","test","fear","fear","f","true"
