"rt","stimulus","key_press","trial_type","trial_index","time_elapsed","internal_node_id","exp_id","Time","year","month","date","hour","minute","seconds","id","age","Gender","Handedness","mood","fresh","H_since_Sleep","H_since_Eat","responses","question_order","slider_start","response","test_part","face","word","correct_response","correct"
"4007.084999990184","<p>Welcome to this experiment on daily rhythms and cognition.</p><p>First you will be asked some questions about yourself.</p><p>Then a short experiment will measure your response time.</p><p>Take the test at different times of the day/night.</p><p><strong>Press any key to begin.</strong></p>","32","html-keyboard-response","0","4011","0.0-0.0","92q5cu","Sun Feb 07 2021 11:07:28 GMT+0100 (Central European Standard Time)","2021","2","7","11","7","28","mw73","47","male","right","67","60","3","1","","","","","","","","",""
"5181.335000030231","","","survey-text","1","9206","0.0-1.0","92q5cu","Sun Feb 07 2021 11:07:28 GMT+0100 (Central European Standard Time)","2021","2","7","11","7","28","mw73","47","male","right","67","60","3","1","{""Q0"":""mw73""}","","","","","","","",""
"3973.225000023376","","","survey-text","2","13181","0.0-2.0","92q5cu","Sun Feb 07 2021 11:07:28 GMT+0100 (Central European Standard Time)","2021","2","7","11","7","28","mw73","47","male","right","67","60","3","1","{""Q0"":""47""}","","","","","","","",""
"3261.820000014268","","","survey-multi-select","3","16458","0.0-3.0","92q5cu","Sun Feb 07 2021 11:07:28 GMT+0100 (Central European Standard Time)","2021","2","7","11","7","28","mw73","47","male","right","67","60","3","1","{""Gender"":[""male""],""Hand"":[""right""]}","[0,1]","","","","","","",""
"2564.2449999577366","<p>How Sad/Angry or Happy are you right now?</p>","","html-slider-response","4","19025","0.0-4.0","92q5cu","Sun Feb 07 2021 11:07:28 GMT+0100 (Central European Standard Time)","2021","2","7","11","7","28","mw73","47","male","right","67","60","3","1","","","50","67","","","","",""
"2841.8049999745563","<p>How Tired/Sleepy or Fresh/Awake are you right now?</p>","","html-slider-response","5","21868","0.0-5.0","92q5cu","Sun Feb 07 2021 11:07:28 GMT+0100 (Central European Standard Time)","2021","2","7","11","7","28","mw73","47","male","right","67","60","3","1","","","50","60","","","","",""
"3932.1750000235625","","","survey-multi-select","6","25811","0.0-6.0","92q5cu","Sun Feb 07 2021 11:07:28 GMT+0100 (Central European Standard Time)","2021","2","7","11","7","28","mw73","47","male","right","67","60","3","1","{""Sleep"":[""3""],""Eat"":[""1""]}","[0,1]","","","","","","",""
"7919.365000037942","<p>In this experiment, a face and a word will appear in the center of the screen.</p><p>If the face is <strong>happy</strong>, press the letter <strong>H</strong> with <strong>right</strong> index finger.</p><p>If the face is <strong>fearful</strong>, press the letter <strong>F</strong> with <strong>left</strong> index finger.</p><p>Respond as fast as possible while being correct. <strong>Ignore</strong> the written words. </p><div style='width: 900px;'><div style='float: left;'><img src='img/stimuli_stroop_happy.png'></img><p class='small'><strong>Press the H key for happy faces</strong></p></div><div class='float: right;'><img src='img/stimuli_stroop_fear.png'></img><p class='small'><strong>Press the F key for faces with fear</strong></p></div></div><p></p><p>Press any key to begin.</p>","70","html-keyboard-response","7","33738","0.0-7.0","92q5cu","Sun Feb 07 2021 11:07:28 GMT+0100 (Central European Standard Time)","2021","2","7","11","7","28","mw73","47","male","right","67","60","3","1","","","","","","","","",""
"null","<div style=""font-size:60px;"">+</div>","null","html-keyboard-response","8","36999","0.0-8.0-0.0","92q5cu","Sun Feb 07 2021 11:07:28 GMT+0100 (Central European Standard Time)","2021","2","7","11","7","28","mw73","47","male","right","67","60","3","1","","","","","fixation","","","",""
"1860.4949999717064","img/image_stim_h.png","72","image-keyboard-response","9","38868","0.0-8.0-1.0","92q5cu","Sun Feb 07 2021 11:07:28 GMT+0100 (Central European Standard Time)","2021","2","7","11","7","28","mw73","47","male","right","67","60","3","1","","","","","test","happy","happy","h","true"
"null","<div style=""font-size:60px;"">+</div>","null","html-keyboard-response","10","40132","0.0-8.0-0.1","92q5cu","Sun Feb 07 2021 11:07:28 GMT+0100 (Central European Standard Time)","2021","2","7","11","7","28","mw73","47","male","right","67","60","3","1","","","","","fixation","","","",""
"896.9499999657273","img/image_stim_f.png","72","image-keyboard-response","11","41029","0.0-8.0-1.1","92q5cu","Sun Feb 07 2021 11:07:28 GMT+0100 (Central European Standard Time)","2021","2","7","11","7","28","mw73","47","male","right","67","60","3","1","","","","","test","fear","fear","f","false"
"null","<div style=""font-size:60px;"">+</div>","null","html-keyboard-response","12","43031","0.0-8.0-0.2","92q5cu","Sun Feb 07 2021 11:07:28 GMT+0100 (Central European Standard Time)","2021","2","7","11","7","28","mw73","47","male","right","67","60","3","1","","","","","fixation","","","",""
"622.3599999793805","img/image_stim_f_stroop.png","72","image-keyboard-response","13","43654","0.0-8.0-1.2","92q5cu","Sun Feb 07 2021 11:07:28 GMT+0100 (Central European Standard Time)","2021","2","7","11","7","28","mw73","47","male","right","67","60","3","1","","","","","test","fear","happy","f","false"
"null","<div style=""font-size:60px;"">+</div>","null","html-keyboard-response","14","44660","0.0-8.0-0.3","92q5cu","Sun Feb 07 2021 11:07:28 GMT+0100 (Central European Standard Time)","2021","2","7","11","7","28","mw73","47","male","right","67","60","3","1","","","","","fixation","","","",""
"813.7750000460073","img/image_stim_h_stroop.png","72","image-keyboard-response","15","45474","0.0-8.0-1.3","92q5cu","Sun Feb 07 2021 11:07:28 GMT+0100 (Central European Standard Time)","2021","2","7","11","7","28","mw73","47","male","right","67","60","3","1","","","","","test","happy","fear","h","true"
"null","<div style=""font-size:60px;"">+</div>","null","html-keyboard-response","16","47476","0.0-8.0-0.4","92q5cu","Sun Feb 07 2021 11:07:28 GMT+0100 (Central European Standard Time)","2021","2","7","11","7","28","mw73","47","male","right","67","60","3","1","","","","","fixation","","","",""
"946.1349999764934","img/image_stim_f.png","70","image-keyboard-response","17","48450","0.0-8.0-1.4","92q5cu","Sun Feb 07 2021 11:07:28 GMT+0100 (Central European Standard Time)","2021","2","7","11","7","28","mw73","47","male","right","67","60","3","1","","","","","test","fear","fear","f","true"
"null","<div style=""font-size:60px;"">+</div>","null","html-keyboard-response","18","48952","0.0-8.0-0.5","92q5cu","Sun Feb 07 2021 11:07:28 GMT+0100 (Central European Standard Time)","2021","2","7","11","7","28","mw73","47","male","right","67","60","3","1","","","","","fixation","","","",""
"598.2400000211783","img/image_stim_h.png","72","image-keyboard-response","19","49552","0.0-8.0-1.5","92q5cu","Sun Feb 07 2021 11:07:28 GMT+0100 (Central European Standard Time)","2021","2","7","11","7","28","mw73","47","male","right","67","60","3","1","","","","","test","happy","happy","h","true"
"null","<div style=""font-size:60px;"">+</div>","null","html-keyboard-response","20","50813","0.0-8.0-0.6","92q5cu","Sun Feb 07 2021 11:07:28 GMT+0100 (Central European Standard Time)","2021","2","7","11","7","28","mw73","47","male","right","67","60","3","1","","","","","fixation","","","",""
"746.1749999783933","img/image_stim_f_stroop.png","70","image-keyboard-response","21","51561","0.0-8.0-1.6","92q5cu","Sun Feb 07 2021 11:07:28 GMT+0100 (Central European Standard Time)","2021","2","7","11","7","28","mw73","47","male","right","67","60","3","1","","","","","test","fear","happy","f","true"
"null","<div style=""font-size:60px;"">+</div>","null","html-keyboard-response","22","52331","0.0-8.0-0.7","92q5cu","Sun Feb 07 2021 11:07:28 GMT+0100 (Central European Standard Time)","2021","2","7","11","7","28","mw73","47","male","right","67","60","3","1","","","","","fixation","","","",""
"639.6199999726377","img/image_stim_h_stroop.png","72","image-keyboard-response","23","52972","0.0-8.0-1.7","92q5cu","Sun Feb 07 2021 11:07:28 GMT+0100 (Central European Standard Time)","2021","2","7","11","7","28","mw73","47","male","right","67","60","3","1","","","","","test","happy","fear","h","true"
"null","<div style=""font-size:60px;"">+</div>","null","html-keyboard-response","24","54975","0.0-8.0-0.8","92q5cu","Sun Feb 07 2021 11:07:28 GMT+0100 (Central European Standard Time)","2021","2","7","11","7","28","mw73","47","male","right","67","60","3","1","","","","","fixation","","","",""
"601.3849999872036","img/image_stim_f_stroop.png","70","image-keyboard-response","25","55577","0.0-8.0-1.8","92q5cu","Sun Feb 07 2021 11:07:28 GMT+0100 (Central European Standard Time)","2021","2","7","11","7","28","mw73","47","male","right","67","60","3","1","","","","","test","fear","happy","f","true"
"null","<div style=""font-size:60px;"">+</div>","null","html-keyboard-response","26","56080","0.0-8.0-0.9","92q5cu","Sun Feb 07 2021 11:07:28 GMT+0100 (Central European Standard Time)","2021","2","7","11","7","28","mw73","47","male","right","67","60","3","1","","","","","fixation","","","",""
"621.1350000230595","img/image_stim_h_stroop.png","72","image-keyboard-response","27","56702","0.0-8.0-1.9","92q5cu","Sun Feb 07 2021 11:07:28 GMT+0100 (Central European Standard Time)","2021","2","7","11","7","28","mw73","47","male","right","67","60","3","1","","","","","test","happy","fear","h","true"
"null","<div style=""font-size:60px;"">+</div>","null","html-keyboard-response","28","57957","0.0-8.0-0.10","92q5cu","Sun Feb 07 2021 11:07:28 GMT+0100 (Central European Standard Time)","2021","2","7","11","7","28","mw73","47","male","right","67","60","3","1","","","","","fixation","","","",""
"644.3599999765866","img/image_stim_h.png","72","image-keyboard-response","29","58603","0.0-8.0-1.10","92q5cu","Sun Feb 07 2021 11:07:28 GMT+0100 (Central European Standard Time)","2021","2","7","11","7","28","mw73","47","male","right","67","60","3","1","","","","","test","happy","happy","h","true"
"null","<div style=""font-size:60px;"">+</div>","null","html-keyboard-response","30","59360","0.0-8.0-0.11","92q5cu","Sun Feb 07 2021 11:07:28 GMT+0100 (Central European Standard Time)","2021","2","7","11","7","28","mw73","47","male","right","67","60","3","1","","","","","fixation","","","",""
"529.660000000149","img/image_stim_f.png","70","image-keyboard-response","31","59891","0.0-8.0-1.11","92q5cu","Sun Feb 07 2021 11:07:28 GMT+0100 (Central European Standard Time)","2021","2","7","11","7","28","mw73","47","male","right","67","60","3","1","","","","","test","fear","fear","f","true"
"null","<div style=""font-size:60px;"">+</div>","null","html-keyboard-response","32","61904","0.0-8.0-0.12","92q5cu","Sun Feb 07 2021 11:07:28 GMT+0100 (Central European Standard Time)","2021","2","7","11","7","28","mw73","47","male","right","67","60","3","1","","","","","fixation","","","",""
"524.6400000178255","img/image_stim_h.png","72","image-keyboard-response","33","62430","0.0-8.0-1.12","92q5cu","Sun Feb 07 2021 11:07:28 GMT+0100 (Central European Standard Time)","2021","2","7","11","7","28","mw73","47","male","right","67","60","3","1","","","","","test","happy","happy","h","true"
"null","<div style=""font-size:60px;"">+</div>","null","html-keyboard-response","34","64433","0.0-8.0-0.13","92q5cu","Sun Feb 07 2021 11:07:28 GMT+0100 (Central European Standard Time)","2021","2","7","11","7","28","mw73","47","male","right","67","60","3","1","","","","","fixation","","","",""
"646.8850000528619","img/image_stim_h_stroop.png","72","image-keyboard-response","35","65081","0.0-8.0-1.13","92q5cu","Sun Feb 07 2021 11:07:28 GMT+0100 (Central European Standard Time)","2021","2","7","11","7","28","mw73","47","male","right","67","60","3","1","","","","","test","happy","fear","h","true"
"null","<div style=""font-size:60px;"">+</div>","null","html-keyboard-response","36","65582","0.0-8.0-0.14","92q5cu","Sun Feb 07 2021 11:07:28 GMT+0100 (Central European Standard Time)","2021","2","7","11","7","28","mw73","47","male","right","67","60","3","1","","","","","fixation","","","",""
"635.8500000205822","img/image_stim_f.png","70","image-keyboard-response","37","66219","0.0-8.0-1.14","92q5cu","Sun Feb 07 2021 11:07:28 GMT+0100 (Central European Standard Time)","2021","2","7","11","7","28","mw73","47","male","right","67","60","3","1","","","","","test","fear","fear","f","true"
"null","<div style=""font-size:60px;"">+</div>","null","html-keyboard-response","38","66975","0.0-8.0-0.15","92q5cu","Sun Feb 07 2021 11:07:28 GMT+0100 (Central European Standard Time)","2021","2","7","11","7","28","mw73","47","male","right","67","60","3","1","","","","","fixation","","","",""
"763.3349999669008","img/image_stim_f_stroop.png","70","image-keyboard-response","39","67739","0.0-8.0-1.15","92q5cu","Sun Feb 07 2021 11:07:28 GMT+0100 (Central European Standard Time)","2021","2","7","11","7","28","mw73","47","male","right","67","60","3","1","","","","","test","fear","happy","f","true"
"null","<div style=""font-size:60px;"">+</div>","null","html-keyboard-response","40","68243","0.0-8.0-0.16","92q5cu","Sun Feb 07 2021 11:07:28 GMT+0100 (Central European Standard Time)","2021","2","7","11","7","28","mw73","47","male","right","67","60","3","1","","","","","fixation","","","",""
"571.765000000596","img/image_stim_h.png","72","image-keyboard-response","41","68816","0.0-8.0-1.16","92q5cu","Sun Feb 07 2021 11:07:28 GMT+0100 (Central European Standard Time)","2021","2","7","11","7","28","mw73","47","male","right","67","60","3","1","","","","","test","happy","happy","h","true"
"null","<div style=""font-size:60px;"">+</div>","null","html-keyboard-response","42","70573","0.0-8.0-0.17","92q5cu","Sun Feb 07 2021 11:07:28 GMT+0100 (Central European Standard Time)","2021","2","7","11","7","28","mw73","47","male","right","67","60","3","1","","","","","fixation","","","",""
"616.6499999817461","img/image_stim_h_stroop.png","72","image-keyboard-response","43","71191","0.0-8.0-1.17","92q5cu","Sun Feb 07 2021 11:07:28 GMT+0100 (Central European Standard Time)","2021","2","7","11","7","28","mw73","47","male","right","67","60","3","1","","","","","test","happy","fear","h","true"
"null","<div style=""font-size:60px;"">+</div>","null","html-keyboard-response","44","71693","0.0-8.0-0.18","92q5cu","Sun Feb 07 2021 11:07:28 GMT+0100 (Central European Standard Time)","2021","2","7","11","7","28","mw73","47","male","right","67","60","3","1","","","","","fixation","","","",""
"670.9250000421889","img/image_stim_f_stroop.png","70","image-keyboard-response","45","72365","0.0-8.0-1.18","92q5cu","Sun Feb 07 2021 11:07:28 GMT+0100 (Central European Standard Time)","2021","2","7","11","7","28","mw73","47","male","right","67","60","3","1","","","","","test","fear","happy","f","true"
"null","<div style=""font-size:60px;"">+</div>","null","html-keyboard-response","46","73619","0.0-8.0-0.19","92q5cu","Sun Feb 07 2021 11:07:28 GMT+0100 (Central European Standard Time)","2021","2","7","11","7","28","mw73","47","male","right","67","60","3","1","","","","","fixation","","","",""
"911.3399999914691","img/image_stim_f.png","70","image-keyboard-response","47","74531","0.0-8.0-1.19","92q5cu","Sun Feb 07 2021 11:07:28 GMT+0100 (Central European Standard Time)","2021","2","7","11","7","28","mw73","47","male","right","67","60","3","1","","","","","test","fear","fear","f","true"
"null","<div style=""font-size:60px;"">+</div>","null","html-keyboard-response","48","76038","0.0-8.0-0.20","92q5cu","Sun Feb 07 2021 11:07:28 GMT+0100 (Central European Standard Time)","2021","2","7","11","7","28","mw73","47","male","right","67","60","3","1","","","","","fixation","","","",""
"520.3849999816157","img/image_stim_h_stroop.png","72","image-keyboard-response","49","76560","0.0-8.0-1.20","92q5cu","Sun Feb 07 2021 11:07:28 GMT+0100 (Central European Standard Time)","2021","2","7","11","7","28","mw73","47","male","right","67","60","3","1","","","","","test","happy","fear","h","true"
"null","<div style=""font-size:60px;"">+</div>","null","html-keyboard-response","50","78318","0.0-8.0-0.21","92q5cu","Sun Feb 07 2021 11:07:28 GMT+0100 (Central European Standard Time)","2021","2","7","11","7","28","mw73","47","male","right","67","60","3","1","","","","","fixation","","","",""
"665.1500000152737","img/image_stim_h.png","72","image-keyboard-response","51","78984","0.0-8.0-1.21","92q5cu","Sun Feb 07 2021 11:07:28 GMT+0100 (Central European Standard Time)","2021","2","7","11","7","28","mw73","47","male","right","67","60","3","1","","","","","test","happy","happy","h","true"
"null","<div style=""font-size:60px;"">+</div>","null","html-keyboard-response","52","79988","0.0-8.0-0.22","92q5cu","Sun Feb 07 2021 11:07:28 GMT+0100 (Central European Standard Time)","2021","2","7","11","7","28","mw73","47","male","right","67","60","3","1","","","","","fixation","","","",""
"631.5250000334345","img/image_stim_f_stroop.png","70","image-keyboard-response","53","80621","0.0-8.0-1.22","92q5cu","Sun Feb 07 2021 11:07:28 GMT+0100 (Central European Standard Time)","2021","2","7","11","7","28","mw73","47","male","right","67","60","3","1","","","","","test","fear","happy","f","true"
"null","<div style=""font-size:60px;"">+</div>","null","html-keyboard-response","54","81627","0.0-8.0-0.23","92q5cu","Sun Feb 07 2021 11:07:28 GMT+0100 (Central European Standard Time)","2021","2","7","11","7","28","mw73","47","male","right","67","60","3","1","","","","","fixation","","","",""
"601.2299999711104","img/image_stim_f.png","70","image-keyboard-response","55","82230","0.0-8.0-1.23","92q5cu","Sun Feb 07 2021 11:07:28 GMT+0100 (Central European Standard Time)","2021","2","7","11","7","28","mw73","47","male","right","67","60","3","1","","","","","test","fear","fear","f","true"
"null","<div style=""font-size:60px;"">+</div>","null","html-keyboard-response","56","83987","0.0-8.0-0.24","92q5cu","Sun Feb 07 2021 11:07:28 GMT+0100 (Central European Standard Time)","2021","2","7","11","7","28","mw73","47","male","right","67","60","3","1","","","","","fixation","","","",""
"725.6649999762885","img/image_stim_h_stroop.png","72","image-keyboard-response","57","84714","0.0-8.0-1.24","92q5cu","Sun Feb 07 2021 11:07:28 GMT+0100 (Central European Standard Time)","2021","2","7","11","7","28","mw73","47","male","right","67","60","3","1","","","","","test","happy","fear","h","true"
"null","<div style=""font-size:60px;"">+</div>","null","html-keyboard-response","58","85220","0.0-8.0-0.25","92q5cu","Sun Feb 07 2021 11:07:28 GMT+0100 (Central European Standard Time)","2021","2","7","11","7","28","mw73","47","male","right","67","60","3","1","","","","","fixation","","","",""
"690.8849999890663","img/image_stim_f.png","70","image-keyboard-response","59","85912","0.0-8.0-1.25","92q5cu","Sun Feb 07 2021 11:07:28 GMT+0100 (Central European Standard Time)","2021","2","7","11","7","28","mw73","47","male","right","67","60","3","1","","","","","test","fear","fear","f","true"
"null","<div style=""font-size:60px;"">+</div>","null","html-keyboard-response","60","87420","0.0-8.0-0.26","92q5cu","Sun Feb 07 2021 11:07:28 GMT+0100 (Central European Standard Time)","2021","2","7","11","7","28","mw73","47","male","right","67","60","3","1","","","","","fixation","","","",""
"758.5550000076182","img/image_stim_f_stroop.png","70","image-keyboard-response","61","88180","0.0-8.0-1.26","92q5cu","Sun Feb 07 2021 11:07:28 GMT+0100 (Central European Standard Time)","2021","2","7","11","7","28","mw73","47","male","right","67","60","3","1","","","","","test","fear","happy","f","true"
"null","<div style=""font-size:60px;"">+</div>","null","html-keyboard-response","62","88433","0.0-8.0-0.27","92q5cu","Sun Feb 07 2021 11:07:28 GMT+0100 (Central European Standard Time)","2021","2","7","11","7","28","mw73","47","male","right","67","60","3","1","","","","","fixation","","","",""
"726.230000029318","img/image_stim_h.png","72","image-keyboard-response","63","89161","0.0-8.0-1.27","92q5cu","Sun Feb 07 2021 11:07:28 GMT+0100 (Central European Standard Time)","2021","2","7","11","7","28","mw73","47","male","right","67","60","3","1","","","","","test","happy","happy","h","true"
"null","<div style=""font-size:60px;"">+</div>","null","html-keyboard-response","64","89665","0.0-8.0-0.28","92q5cu","Sun Feb 07 2021 11:07:28 GMT+0100 (Central European Standard Time)","2021","2","7","11","7","28","mw73","47","male","right","67","60","3","1","","","","","fixation","","","",""
"1215.5199999688193","img/image_stim_f_stroop.png","70","image-keyboard-response","65","90882","0.0-8.0-1.28","92q5cu","Sun Feb 07 2021 11:07:28 GMT+0100 (Central European Standard Time)","2021","2","7","11","7","28","mw73","47","male","right","67","60","3","1","","","","","test","fear","happy","f","true"
"null","<div style=""font-size:60px;"">+</div>","null","html-keyboard-response","66","91135","0.0-8.0-0.29","92q5cu","Sun Feb 07 2021 11:07:28 GMT+0100 (Central European Standard Time)","2021","2","7","11","7","28","mw73","47","male","right","67","60","3","1","","","","","fixation","","","",""
"1149.909999978263","img/image_stim_h.png","72","image-keyboard-response","67","92286","0.0-8.0-1.29","92q5cu","Sun Feb 07 2021 11:07:28 GMT+0100 (Central European Standard Time)","2021","2","7","11","7","28","mw73","47","male","right","67","60","3","1","","","","","test","happy","happy","h","true"
"null","<div style=""font-size:60px;"">+</div>","null","html-keyboard-response","68","94291","0.0-8.0-0.30","92q5cu","Sun Feb 07 2021 11:07:28 GMT+0100 (Central European Standard Time)","2021","2","7","11","7","28","mw73","47","male","right","67","60","3","1","","","","","fixation","","","",""
"679.4450000161305","img/image_stim_f.png","70","image-keyboard-response","69","94980","0.0-8.0-1.30","92q5cu","Sun Feb 07 2021 11:07:28 GMT+0100 (Central European Standard Time)","2021","2","7","11","7","28","mw73","47","male","right","67","60","3","1","","","","","test","fear","fear","f","true"
"null","<div style=""font-size:60px;"">+</div>","null","html-keyboard-response","70","95737","0.0-8.0-0.31","92q5cu","Sun Feb 07 2021 11:07:28 GMT+0100 (Central European Standard Time)","2021","2","7","11","7","28","mw73","47","male","right","67","60","3","1","","","","","fixation","","","",""
"691.0200000274926","img/image_stim_h_stroop.png","72","image-keyboard-response","71","96429","0.0-8.0-1.31","92q5cu","Sun Feb 07 2021 11:07:28 GMT+0100 (Central European Standard Time)","2021","2","7","11","7","28","mw73","47","male","right","67","60","3","1","","","","","test","happy","fear","h","true"
