"rt","stimulus","key_press","trial_type","trial_index","time_elapsed","internal_node_id","exp_id","Time","year","month","date","hour","minute","seconds","id","age","Gender","Handedness","mood","fresh","hunger","H_since_Sleep","H_since_Eat","responses","question_order","slider_start","response","test_part","face","word","correct_response","correct"
"50269154","<p>Welcome to this experiment on daily rhythms and cognition.</p><p>First you will be asked some questions about yourself.</p><p>Then a short experiment will measure your response time.</p><p>Take the test at different times of the day/night.</p><p>The test is anonymous, but comparing your data across time is important.</p><p>Therefore, please make up and remember a personal ID (two letters+ two numbers).</p><p>Use this ID whenever taking the test.</p><p><strong>Press any key to begin.</strong></p>","78","html-keyboard-response","0","50255375","0.0-0.0","7dhw31","Sun Feb 07 2021 23:43:25 GMT+0200 (Eastern European Standard Time)","2021","2","7","23","43","25","lb78","27","male","left","81","66","92","2","1","","","","","","","","",""
"20435","","","survey-text","1","50275816","0.0-1.0","7dhw31","Sun Feb 07 2021 23:43:25 GMT+0200 (Eastern European Standard Time)","2021","2","7","23","43","25","lb78","27","male","left","81","66","92","2","1","{""Q0"":""lb78""}","","","","","","","",""
"5580","","","survey-text","2","50281398","0.0-2.0","7dhw31","Sun Feb 07 2021 23:43:25 GMT+0200 (Eastern European Standard Time)","2021","2","7","23","43","25","lb78","27","male","left","81","66","92","2","1","{""Q0"":""27""}","","","","","","","",""
"4078","","","survey-multi-select","3","50285480","0.0-3.0","7dhw31","Sun Feb 07 2021 23:43:25 GMT+0200 (Eastern European Standard Time)","2021","2","7","23","43","25","lb78","27","male","left","81","66","92","2","1","{""Gender"":[""male""],""Hand"":[""left""]}","[0,1]","","","","","","",""
"21671","<p>How Sad/Angry or Happy are you right now?</p>","","html-slider-response","4","50307156","0.0-4.0","7dhw31","Sun Feb 07 2021 23:43:25 GMT+0200 (Eastern European Standard Time)","2021","2","7","23","43","25","lb78","27","male","left","81","66","92","2","1","","","50","81","","","","",""
"20116","<p>How Tired/Sleepy/Distracted or Fresh/Awake/Alert are you right now?</p>","","html-slider-response","5","50327273","0.0-5.0","7dhw31","Sun Feb 07 2021 23:43:25 GMT+0200 (Eastern European Standard Time)","2021","2","7","23","43","25","lb78","27","male","left","81","66","92","2","1","","","50","66","","","","",""
"8356","<p>How Hungry or Satiated are you right now?</p>","","html-slider-response","6","50335631","0.0-6.0","7dhw31","Sun Feb 07 2021 23:43:25 GMT+0200 (Eastern European Standard Time)","2021","2","7","23","43","25","lb78","27","male","left","81","66","92","2","1","","","50","92","","","","",""
"27176","","","survey-multi-select","7","50362823","0.0-7.0","7dhw31","Sun Feb 07 2021 23:43:25 GMT+0200 (Eastern European Standard Time)","2021","2","7","23","43","25","lb78","27","male","left","81","66","92","2","1","{""Sleep"":[""2""],""Eat"":[""1""]}","[0,1]","","","","","","",""
"34930","<p>In this experiment, a face and a word will appear in the center of the screen.</p><p>If the face is <strong>happy</strong>, press the letter <strong>H</strong> with <strong>right</strong> index finger.</p><p>If the face is <strong>fearful</strong>, press the letter <strong>F</strong> with <strong>left</strong> index finger.</p><p><strong>Ignore the written words</strong>. Respond as fast as possible while being correct. </p><div style='width: 900px;'><div style='float: left;'><img src='img/stimuli_stroop_happy.png'></img><p class='small'><strong>Press the H key for happy faces</strong></p></div><div class='float: right;'><img src='img/stimuli_stroop_fear.png'></img><p class='small'><strong>Press the F key for faces with fear</strong></p></div></div><p>If the screen turns blank, press <strong>SPACE</strong></p><p><strong>Press any key to begin.</strong></p>","32","html-keyboard-response","8","50397756","0.0-8.0","7dhw31","Sun Feb 07 2021 23:43:25 GMT+0200 (Eastern European Standard Time)","2021","2","7","23","43","25","lb78","27","male","left","81","66","92","2","1","","","","","","","","",""
"null","<div style=""font-size:60px;"">+</div>","null","html-keyboard-response","9","50401765","0.0-9.0-0.0","7dhw31","Sun Feb 07 2021 23:43:25 GMT+0200 (Eastern European Standard Time)","2021","2","7","23","43","25","lb78","27","male","left","81","66","92","2","1","","","","","fixation","","","",""
"null","img/image_stim_f.png","null","image-keyboard-response","10","50406805","0.0-9.0-1.0","7dhw31","Sun Feb 07 2021 23:43:25 GMT+0200 (Eastern European Standard Time)","2021","2","7","23","43","25","lb78","27","male","left","81","66","92","2","1","","","","","test","fear","fear","f","false"
"null","<div style=""font-size:60px;"">+</div>","null","html-keyboard-response","11","50408316","0.0-9.0-0.1","7dhw31","Sun Feb 07 2021 23:43:25 GMT+0200 (Eastern European Standard Time)","2021","2","7","23","43","25","lb78","27","male","left","81","66","92","2","1","","","","","fixation","","","",""
"null","img/image_stim_h.png","null","image-keyboard-response","12","50413328","0.0-9.0-1.1","7dhw31","Sun Feb 07 2021 23:43:25 GMT+0200 (Eastern European Standard Time)","2021","2","7","23","43","25","lb78","27","male","left","81","66","92","2","1","","","","","test","happy","happy","h","false"
"null","<div style=""font-size:60px;"">+</div>","null","html-keyboard-response","13","50414084","0.0-9.0-0.2","7dhw31","Sun Feb 07 2021 23:43:25 GMT+0200 (Eastern European Standard Time)","2021","2","7","23","43","25","lb78","27","male","left","81","66","92","2","1","","","","","fixation","","","",""
"null","img/image_stim_h_stroop.png","null","image-keyboard-response","14","50419088","0.0-9.0-1.2","7dhw31","Sun Feb 07 2021 23:43:25 GMT+0200 (Eastern European Standard Time)","2021","2","7","23","43","25","lb78","27","male","left","81","66","92","2","1","","","","","test","happy","fear","h","false"
"null","<div style=""font-size:60px;"">+</div>","null","html-keyboard-response","15","50420351","0.0-9.0-0.3","7dhw31","Sun Feb 07 2021 23:43:25 GMT+0200 (Eastern European Standard Time)","2021","2","7","23","43","25","lb78","27","male","left","81","66","92","2","1","","","","","fixation","","","",""
"null","img/image_stim_f_stroop.png","null","image-keyboard-response","16","50425366","0.0-9.0-1.3","7dhw31","Sun Feb 07 2021 23:43:25 GMT+0200 (Eastern European Standard Time)","2021","2","7","23","43","25","lb78","27","male","left","81","66","92","2","1","","","","","test","fear","happy","f","false"
"null","<div style=""font-size:60px;"">+</div>","null","html-keyboard-response","17","50426126","0.0-9.0-0.4","7dhw31","Sun Feb 07 2021 23:43:25 GMT+0200 (Eastern European Standard Time)","2021","2","7","23","43","25","lb78","27","male","left","81","66","92","2","1","","","","","fixation","","","",""
"2411","img/image_stim_f_stroop.png","70","image-keyboard-response","18","50428542","0.0-9.0-1.4","7dhw31","Sun Feb 07 2021 23:43:25 GMT+0200 (Eastern European Standard Time)","2021","2","7","23","43","25","lb78","27","male","left","81","66","92","2","1","","","","","test","fear","happy","f","true"
"null","<div style=""font-size:60px;"">+</div>","null","html-keyboard-response","19","50428808","0.0-9.0-0.5","7dhw31","Sun Feb 07 2021 23:43:25 GMT+0200 (Eastern European Standard Time)","2021","2","7","23","43","25","lb78","27","male","left","81","66","92","2","1","","","","","fixation","","","",""
"1284","img/image_stim_h.png","72","image-keyboard-response","20","50430096","0.0-9.0-1.5","7dhw31","Sun Feb 07 2021 23:43:25 GMT+0200 (Eastern European Standard Time)","2021","2","7","23","43","25","lb78","27","male","left","81","66","92","2","1","","","","","test","happy","happy","h","true"
"null","<div style=""font-size:60px;"">+</div>","null","html-keyboard-response","21","50430859","0.0-9.0-0.6","7dhw31","Sun Feb 07 2021 23:43:25 GMT+0200 (Eastern European Standard Time)","2021","2","7","23","43","25","lb78","27","male","left","81","66","92","2","1","","","","","fixation","","","",""
"1024","img/image_stim_f.png","70","image-keyboard-response","22","50431887","0.0-9.0-1.6","7dhw31","Sun Feb 07 2021 23:43:25 GMT+0200 (Eastern European Standard Time)","2021","2","7","23","43","25","lb78","27","male","left","81","66","92","2","1","","","","","test","fear","fear","f","true"
"null","<div style=""font-size:60px;"">+</div>","null","html-keyboard-response","23","50432640","0.0-9.0-0.7","7dhw31","Sun Feb 07 2021 23:43:25 GMT+0200 (Eastern European Standard Time)","2021","2","7","23","43","25","lb78","27","male","left","81","66","92","2","1","","","","","fixation","","","",""
"932","img/image_stim_h_stroop.png","72","image-keyboard-response","24","50433576","0.0-9.0-1.7","7dhw31","Sun Feb 07 2021 23:43:25 GMT+0200 (Eastern European Standard Time)","2021","2","7","23","43","25","lb78","27","male","left","81","66","92","2","1","","","","","test","happy","fear","h","true"
"null","<div style=""font-size:60px;"">+</div>","null","html-keyboard-response","25","50435334","0.0-9.0-0.8","7dhw31","Sun Feb 07 2021 23:43:25 GMT+0200 (Eastern European Standard Time)","2021","2","7","23","43","25","lb78","27","male","left","81","66","92","2","1","","","","","fixation","","","",""
"775","img/image_stim_h_stroop.png","72","image-keyboard-response","26","50436111","0.0-9.0-1.8","7dhw31","Sun Feb 07 2021 23:43:25 GMT+0200 (Eastern European Standard Time)","2021","2","7","23","43","25","lb78","27","male","left","81","66","92","2","1","","","","","test","happy","fear","h","true"
"null","<div style=""font-size:60px;"">+</div>","null","html-keyboard-response","27","50436618","0.0-9.0-0.9","7dhw31","Sun Feb 07 2021 23:43:25 GMT+0200 (Eastern European Standard Time)","2021","2","7","23","43","25","lb78","27","male","left","81","66","92","2","1","","","","","fixation","","","",""
"605","img/image_stim_h.png","72","image-keyboard-response","28","50437223","0.0-9.0-1.9","7dhw31","Sun Feb 07 2021 23:43:25 GMT+0200 (Eastern European Standard Time)","2021","2","7","23","43","25","lb78","27","male","left","81","66","92","2","1","","","","","test","happy","happy","h","true"
"null","<div style=""font-size:60px;"">+</div>","null","html-keyboard-response","29","50437480","0.0-9.0-0.10","7dhw31","Sun Feb 07 2021 23:43:25 GMT+0200 (Eastern European Standard Time)","2021","2","7","23","43","25","lb78","27","male","left","81","66","92","2","1","","","","","fixation","","","",""
"677","img/image_stim_f.png","70","image-keyboard-response","30","50438158","0.0-9.0-1.10","7dhw31","Sun Feb 07 2021 23:43:25 GMT+0200 (Eastern European Standard Time)","2021","2","7","23","43","25","lb78","27","male","left","81","66","92","2","1","","","","","test","fear","fear","f","true"
"null","<div style=""font-size:60px;"">+</div>","null","html-keyboard-response","31","50438668","0.0-9.0-0.11","7dhw31","Sun Feb 07 2021 23:43:25 GMT+0200 (Eastern European Standard Time)","2021","2","7","23","43","25","lb78","27","male","left","81","66","92","2","1","","","","","fixation","","","",""
"725","img/image_stim_f_stroop.png","70","image-keyboard-response","32","50439395","0.0-9.0-1.11","7dhw31","Sun Feb 07 2021 23:43:25 GMT+0200 (Eastern European Standard Time)","2021","2","7","23","43","25","lb78","27","male","left","81","66","92","2","1","","","","","test","fear","happy","f","true"
"null","<div style=""font-size:60px;"">+</div>","null","html-keyboard-response","33","50439659","0.0-9.0-0.12","7dhw31","Sun Feb 07 2021 23:43:25 GMT+0200 (Eastern European Standard Time)","2021","2","7","23","43","25","lb78","27","male","left","81","66","92","2","1","","","","","fixation","","","",""
"500","img/image_stim_f.png","70","image-keyboard-response","34","50440160","0.0-9.0-1.12","7dhw31","Sun Feb 07 2021 23:43:25 GMT+0200 (Eastern European Standard Time)","2021","2","7","23","43","25","lb78","27","male","left","81","66","92","2","1","","","","","test","fear","fear","f","true"
"null","<div style=""font-size:60px;"">+</div>","null","html-keyboard-response","35","50441174","0.0-9.0-0.13","7dhw31","Sun Feb 07 2021 23:43:25 GMT+0200 (Eastern European Standard Time)","2021","2","7","23","43","25","lb78","27","male","left","81","66","92","2","1","","","","","fixation","","","",""
"507","img/image_stim_h_stroop.png","72","image-keyboard-response","36","50441681","0.0-9.0-1.13","7dhw31","Sun Feb 07 2021 23:43:25 GMT+0200 (Eastern European Standard Time)","2021","2","7","23","43","25","lb78","27","male","left","81","66","92","2","1","","","","","test","happy","fear","h","true"
"null","<div style=""font-size:60px;"">+</div>","null","html-keyboard-response","37","50442947","0.0-9.0-0.14","7dhw31","Sun Feb 07 2021 23:43:25 GMT+0200 (Eastern European Standard Time)","2021","2","7","23","43","25","lb78","27","male","left","81","66","92","2","1","","","","","fixation","","","",""
"1496","img/image_stim_f_stroop.png","70","image-keyboard-response","38","50444445","0.0-9.0-1.14","7dhw31","Sun Feb 07 2021 23:43:25 GMT+0200 (Eastern European Standard Time)","2021","2","7","23","43","25","lb78","27","male","left","81","66","92","2","1","","","","","test","fear","happy","f","true"
"null","<div style=""font-size:60px;"">+</div>","null","html-keyboard-response","39","50445952","0.0-9.0-0.15","7dhw31","Sun Feb 07 2021 23:43:25 GMT+0200 (Eastern European Standard Time)","2021","2","7","23","43","25","lb78","27","male","left","81","66","92","2","1","","","","","fixation","","","",""
"762","img/image_stim_h.png","72","image-keyboard-response","40","50446715","0.0-9.0-1.15","7dhw31","Sun Feb 07 2021 23:43:25 GMT+0200 (Eastern European Standard Time)","2021","2","7","23","43","25","lb78","27","male","left","81","66","92","2","1","","","","","test","happy","happy","h","true"
"null","<div style=""font-size:60px;"">+</div>","null","html-keyboard-response","41","50447724","0.0-9.0-0.16","7dhw31","Sun Feb 07 2021 23:43:25 GMT+0200 (Eastern European Standard Time)","2021","2","7","23","43","25","lb78","27","male","left","81","66","92","2","1","","","","","fixation","","","",""
"583","img/image_stim_h.png","72","image-keyboard-response","42","50448308","0.0-9.0-1.16","7dhw31","Sun Feb 07 2021 23:43:25 GMT+0200 (Eastern European Standard Time)","2021","2","7","23","43","25","lb78","27","male","left","81","66","92","2","1","","","","","test","happy","happy","h","true"
"null","<div style=""font-size:60px;"">+</div>","null","html-keyboard-response","43","50448811","0.0-9.0-0.17","7dhw31","Sun Feb 07 2021 23:43:25 GMT+0200 (Eastern European Standard Time)","2021","2","7","23","43","25","lb78","27","male","left","81","66","92","2","1","","","","","fixation","","","",""
"733","img/image_stim_f.png","70","image-keyboard-response","44","50449545","0.0-9.0-1.17","7dhw31","Sun Feb 07 2021 23:43:25 GMT+0200 (Eastern European Standard Time)","2021","2","7","23","43","25","lb78","27","male","left","81","66","92","2","1","","","","","test","fear","fear","f","true"
"null","<div style=""font-size:60px;"">+</div>","null","html-keyboard-response","45","50450800","0.0-9.0-0.18","7dhw31","Sun Feb 07 2021 23:43:25 GMT+0200 (Eastern European Standard Time)","2021","2","7","23","43","25","lb78","27","male","left","81","66","92","2","1","","","","","fixation","","","",""
"628","img/image_stim_h_stroop.png","72","image-keyboard-response","46","50451430","0.0-9.0-1.18","7dhw31","Sun Feb 07 2021 23:43:25 GMT+0200 (Eastern European Standard Time)","2021","2","7","23","43","25","lb78","27","male","left","81","66","92","2","1","","","","","test","happy","fear","h","true"
"null","<div style=""font-size:60px;"">+</div>","null","html-keyboard-response","47","50452695","0.0-9.0-0.19","7dhw31","Sun Feb 07 2021 23:43:25 GMT+0200 (Eastern European Standard Time)","2021","2","7","23","43","25","lb78","27","male","left","81","66","92","2","1","","","","","fixation","","","",""
"900","img/image_stim_f_stroop.png","70","image-keyboard-response","48","50453596","0.0-9.0-1.19","7dhw31","Sun Feb 07 2021 23:43:25 GMT+0200 (Eastern European Standard Time)","2021","2","7","23","43","25","lb78","27","male","left","81","66","92","2","1","","","","","test","fear","happy","f","true"
"null","<div style=""font-size:60px;"">+</div>","null","html-keyboard-response","49","50454356","0.0-9.0-0.20","7dhw31","Sun Feb 07 2021 23:43:25 GMT+0200 (Eastern European Standard Time)","2021","2","7","23","43","25","lb78","27","male","left","81","66","92","2","1","","","","","fixation","","","",""
"715","img/image_stim_h_stroop.png","72","image-keyboard-response","50","50455073","0.0-9.0-1.20","7dhw31","Sun Feb 07 2021 23:43:25 GMT+0200 (Eastern European Standard Time)","2021","2","7","23","43","25","lb78","27","male","left","81","66","92","2","1","","","","","test","happy","fear","h","true"
"null","<div style=""font-size:60px;"">+</div>","null","html-keyboard-response","51","50456588","0.0-9.0-0.21","7dhw31","Sun Feb 07 2021 23:43:25 GMT+0200 (Eastern European Standard Time)","2021","2","7","23","43","25","lb78","27","male","left","81","66","92","2","1","","","","","fixation","","","",""
"514","img/image_stim_h.png","72","image-keyboard-response","52","50457103","0.0-9.0-1.21","7dhw31","Sun Feb 07 2021 23:43:25 GMT+0200 (Eastern European Standard Time)","2021","2","7","23","43","25","lb78","27","male","left","81","66","92","2","1","","","","","test","happy","happy","h","true"
"null","<div style=""font-size:60px;"">+</div>","null","html-keyboard-response","53","50458121","0.0-9.0-0.22","7dhw31","Sun Feb 07 2021 23:43:25 GMT+0200 (Eastern European Standard Time)","2021","2","7","23","43","25","lb78","27","male","left","81","66","92","2","1","","","","","fixation","","","",""
"433","img/image_stim_f_stroop.png","72","image-keyboard-response","54","50458555","0.0-9.0-1.22","7dhw31","Sun Feb 07 2021 23:43:25 GMT+0200 (Eastern European Standard Time)","2021","2","7","23","43","25","lb78","27","male","left","81","66","92","2","1","","","","","test","fear","happy","f","false"
"null","<div style=""font-size:60px;"">+</div>","null","html-keyboard-response","55","50460562","0.0-9.0-0.23","7dhw31","Sun Feb 07 2021 23:43:25 GMT+0200 (Eastern European Standard Time)","2021","2","7","23","43","25","lb78","27","male","left","81","66","92","2","1","","","","","fixation","","","",""
"731","img/image_stim_f.png","70","image-keyboard-response","56","50461294","0.0-9.0-1.23","7dhw31","Sun Feb 07 2021 23:43:25 GMT+0200 (Eastern European Standard Time)","2021","2","7","23","43","25","lb78","27","male","left","81","66","92","2","1","","","","","test","fear","fear","f","true"
"null","<div style=""font-size:60px;"">+</div>","null","html-keyboard-response","57","50462808","0.0-9.0-0.24","7dhw31","Sun Feb 07 2021 23:43:25 GMT+0200 (Eastern European Standard Time)","2021","2","7","23","43","25","lb78","27","male","left","81","66","92","2","1","","","","","fixation","","","",""
"697","img/image_stim_h.png","72","image-keyboard-response","58","50463507","0.0-9.0-1.24","7dhw31","Sun Feb 07 2021 23:43:25 GMT+0200 (Eastern European Standard Time)","2021","2","7","23","43","25","lb78","27","male","left","81","66","92","2","1","","","","","test","happy","happy","h","true"
"null","<div style=""font-size:60px;"">+</div>","null","html-keyboard-response","59","50464266","0.0-9.0-0.25","7dhw31","Sun Feb 07 2021 23:43:25 GMT+0200 (Eastern European Standard Time)","2021","2","7","23","43","25","lb78","27","male","left","81","66","92","2","1","","","","","fixation","","","",""
"545","img/image_stim_f_stroop.png","70","image-keyboard-response","60","50464812","0.0-9.0-1.25","7dhw31","Sun Feb 07 2021 23:43:25 GMT+0200 (Eastern European Standard Time)","2021","2","7","23","43","25","lb78","27","male","left","81","66","92","2","1","","","","","test","fear","happy","f","true"
"null","<div style=""font-size:60px;"">+</div>","null","html-keyboard-response","61","50466070","0.0-9.0-0.26","7dhw31","Sun Feb 07 2021 23:43:25 GMT+0200 (Eastern European Standard Time)","2021","2","7","23","43","25","lb78","27","male","left","81","66","92","2","1","","","","","fixation","","","",""
"648","img/image_stim_h_stroop.png","72","image-keyboard-response","62","50466717","0.0-9.0-1.26","7dhw31","Sun Feb 07 2021 23:43:25 GMT+0200 (Eastern European Standard Time)","2021","2","7","23","43","25","lb78","27","male","left","81","66","92","2","1","","","","","test","happy","fear","h","true"
"null","<div style=""font-size:60px;"">+</div>","null","html-keyboard-response","63","50467483","0.0-9.0-0.27","7dhw31","Sun Feb 07 2021 23:43:25 GMT+0200 (Eastern European Standard Time)","2021","2","7","23","43","25","lb78","27","male","left","81","66","92","2","1","","","","","fixation","","","",""
"712","img/image_stim_f.png","70","image-keyboard-response","64","50468196","0.0-9.0-1.27","7dhw31","Sun Feb 07 2021 23:43:25 GMT+0200 (Eastern European Standard Time)","2021","2","7","23","43","25","lb78","27","male","left","81","66","92","2","1","","","","","test","fear","fear","f","true"
"null","<div style=""font-size:60px;"">+</div>","null","html-keyboard-response","65","50469953","0.0-9.0-0.28","7dhw31","Sun Feb 07 2021 23:43:25 GMT+0200 (Eastern European Standard Time)","2021","2","7","23","43","25","lb78","27","male","left","81","66","92","2","1","","","","","fixation","","","",""
"708","img/image_stim_h.png","72","image-keyboard-response","66","50470663","0.0-9.0-1.28","7dhw31","Sun Feb 07 2021 23:43:25 GMT+0200 (Eastern European Standard Time)","2021","2","7","23","43","25","lb78","27","male","left","81","66","92","2","1","","","","","test","happy","happy","h","true"
"null","<div style=""font-size:60px;"">+</div>","null","html-keyboard-response","67","50471674","0.0-9.0-0.29","7dhw31","Sun Feb 07 2021 23:43:25 GMT+0200 (Eastern European Standard Time)","2021","2","7","23","43","25","lb78","27","male","left","81","66","92","2","1","","","","","fixation","","","",""
"815","img/image_stim_f_stroop.png","70","image-keyboard-response","68","50472491","0.0-9.0-1.29","7dhw31","Sun Feb 07 2021 23:43:25 GMT+0200 (Eastern European Standard Time)","2021","2","7","23","43","25","lb78","27","male","left","81","66","92","2","1","","","","","test","fear","happy","f","true"
"null","<div style=""font-size:60px;"">+</div>","null","html-keyboard-response","69","50474498","0.0-9.0-0.30","7dhw31","Sun Feb 07 2021 23:43:25 GMT+0200 (Eastern European Standard Time)","2021","2","7","23","43","25","lb78","27","male","left","81","66","92","2","1","","","","","fixation","","","",""
"857","img/image_stim_h_stroop.png","72","image-keyboard-response","70","50475356","0.0-9.0-1.30","7dhw31","Sun Feb 07 2021 23:43:25 GMT+0200 (Eastern European Standard Time)","2021","2","7","23","43","25","lb78","27","male","left","81","66","92","2","1","","","","","test","happy","fear","h","true"
"null","<div style=""font-size:60px;"">+</div>","null","html-keyboard-response","71","50476116","0.0-9.0-0.31","7dhw31","Sun Feb 07 2021 23:43:25 GMT+0200 (Eastern European Standard Time)","2021","2","7","23","43","25","lb78","27","male","left","81","66","92","2","1","","","","","fixation","","","",""
"591","img/image_stim_f.png","70","image-keyboard-response","72","50476708","0.0-9.0-1.31","7dhw31","Sun Feb 07 2021 23:43:25 GMT+0200 (Eastern European Standard Time)","2021","2","7","23","43","25","lb78","27","male","left","81","66","92","2","1","","","","","test","fear","fear","f","true"
"null","<div style=""font-size:60px;"">+</div>","null","html-keyboard-response","73","50477714","0.0-9.0-0.32","7dhw31","Sun Feb 07 2021 23:43:25 GMT+0200 (Eastern European Standard Time)","2021","2","7","23","43","25","lb78","27","male","left","81","66","92","2","1","","","","","fixation","","","",""
"714","img/image_stim_h.png","72","image-keyboard-response","74","50478429","0.0-9.0-1.32","7dhw31","Sun Feb 07 2021 23:43:25 GMT+0200 (Eastern European Standard Time)","2021","2","7","23","43","25","lb78","27","male","left","81","66","92","2","1","","","","","test","happy","happy","h","true"
"null","<div style=""font-size:60px;"">+</div>","null","html-keyboard-response","75","50479440","0.0-9.0-0.33","7dhw31","Sun Feb 07 2021 23:43:25 GMT+0200 (Eastern European Standard Time)","2021","2","7","23","43","25","lb78","27","male","left","81","66","92","2","1","","","","","fixation","","","",""
"671","img/image_stim_h_stroop.png","72","image-keyboard-response","76","50480111","0.0-9.0-1.33","7dhw31","Sun Feb 07 2021 23:43:25 GMT+0200 (Eastern European Standard Time)","2021","2","7","23","43","25","lb78","27","male","left","81","66","92","2","1","","","","","test","happy","fear","h","true"
"null","<div style=""font-size:60px;"">+</div>","null","html-keyboard-response","77","50481624","0.0-9.0-0.34","7dhw31","Sun Feb 07 2021 23:43:25 GMT+0200 (Eastern European Standard Time)","2021","2","7","23","43","25","lb78","27","male","left","81","66","92","2","1","","","","","fixation","","","",""
"893","img/image_stim_f.png","70","image-keyboard-response","78","50482519","0.0-9.0-1.34","7dhw31","Sun Feb 07 2021 23:43:25 GMT+0200 (Eastern European Standard Time)","2021","2","7","23","43","25","lb78","27","male","left","81","66","92","2","1","","","","","test","fear","fear","f","true"
"null","<div style=""font-size:60px;"">+</div>","null","html-keyboard-response","79","50482777","0.0-9.0-0.35","7dhw31","Sun Feb 07 2021 23:43:25 GMT+0200 (Eastern European Standard Time)","2021","2","7","23","43","25","lb78","27","male","left","81","66","92","2","1","","","","","fixation","","","",""
"834","img/image_stim_f_stroop.png","70","image-keyboard-response","80","50483613","0.0-9.0-1.35","7dhw31","Sun Feb 07 2021 23:43:25 GMT+0200 (Eastern European Standard Time)","2021","2","7","23","43","25","lb78","27","male","left","81","66","92","2","1","","","","","test","fear","happy","f","true"
