"rt","stimulus","key_press","trial_type","trial_index","time_elapsed","internal_node_id","exp_id","Time","year","month","date","hour","minute","seconds","id","age","Gender","Handedness","mood","fresh","hunger","H_since_Sleep","H_since_Eat","responses","question_order","slider_start","response","test_part","face","word","correct_response","correct"
"12487","<p>Welcome to this experiment on daily rhythms and cognition.</p><p>First you will be asked some questions about yourself.</p><p>Then a short experiment will measure your response time.</p><p>Take the test at different times of the day/night.</p><p>The test is anonymous, but comparing your data across time is important.</p><p>Therefore, please make up and remember a personal ID (two letters+ two numbers).</p><p>Use this ID whenever taking the test.</p><p><strong>Press any key to begin.</strong></p>","32","html-keyboard-response","0","12489","0.0-0.0","bchdny","Tue Feb 09 2021 07:21:48 GMT+0100 (CET)","2021","2","9","7","21","48","em98","22","female","right","70","5","69","1","8","","","","","","","","",""
"2718","","","survey-text","1","15230","0.0-1.0","bchdny","Tue Feb 09 2021 07:21:48 GMT+0100 (CET)","2021","2","9","7","21","48","em98","22","female","right","70","5","69","1","8","{""Q0"":""em98""}","","","","","","","",""
"11829.999999999998","","","survey-text","2","27064","0.0-2.0","bchdny","Tue Feb 09 2021 07:21:48 GMT+0100 (CET)","2021","2","9","7","21","48","em98","22","female","right","70","5","69","1","8","{""Q0"":""22""}","","","","","","","",""
"3844","","","survey-multi-select","3","30911","0.0-3.0","bchdny","Tue Feb 09 2021 07:21:48 GMT+0100 (CET)","2021","2","9","7","21","48","em98","22","female","right","70","5","69","1","8","{""Gender"":[""female""],""Hand"":[""right""]}","[0,1]","","","","","","",""
"3607","<p>How Sad/Angry or Happy are you right now?</p>","","html-slider-response","4","34520","0.0-4.0","bchdny","Tue Feb 09 2021 07:21:48 GMT+0100 (CET)","2021","2","9","7","21","48","em98","22","female","right","70","5","69","1","8","","","50","70","","","","",""
"10143","<p>How Tired/Sleepy/Distracted or Fresh/Awake/Alert are you right now?</p>","","html-slider-response","5","44665","0.0-5.0","bchdny","Tue Feb 09 2021 07:21:48 GMT+0100 (CET)","2021","2","9","7","21","48","em98","22","female","right","70","5","69","1","8","","","50","5","","","","",""
"4933.999999999993","<p>How Hungry or Satiated are you right now?</p>","","html-slider-response","6","49602","0.0-6.0","bchdny","Tue Feb 09 2021 07:21:48 GMT+0100 (CET)","2021","2","9","7","21","48","em98","22","female","right","70","5","69","1","8","","","50","69","","","","",""
"8025","","","survey-multi-select","7","57644","0.0-7.0","bchdny","Tue Feb 09 2021 07:21:48 GMT+0100 (CET)","2021","2","9","7","21","48","em98","22","female","right","70","5","69","1","8","{""Sleep"":[""1""],""Eat"":[""8""]}","[0,1]","","","","","","",""
"4770.000000000007","<p>In this experiment, a face and a word will appear in the center of the screen.</p><p>If the face is <strong>happy</strong>, press the letter <strong>H</strong> with <strong>right</strong> index finger.</p><p>If the face is <strong>fearful</strong>, press the letter <strong>F</strong> with <strong>left</strong> index finger.</p><p><strong>Ignore the written words</strong>. Respond as fast as possible while being correct. </p><div style='width: 900px;'><div style='float: left;'><img src='img/stimuli_stroop_happy.png'></img><p class='small'><strong>Press the H key for happy faces</strong></p></div><div class='float: right;'><img src='img/stimuli_stroop_fear.png'></img><p class='small'><strong>Press the F key for faces with fear</strong></p></div></div><p>If the screen turns blank, press <strong>SPACE</strong></p><p><strong>Press any key to begin.</strong></p>","70","html-keyboard-response","8","62415","0.0-8.0","bchdny","Tue Feb 09 2021 07:21:48 GMT+0100 (CET)","2021","2","9","7","21","48","em98","22","female","right","70","5","69","1","8","","","","","","","","",""
"null","<div style=""font-size:60px;"">+</div>","null","html-keyboard-response","9","66420","0.0-9.0-0.0","bchdny","Tue Feb 09 2021 07:21:48 GMT+0100 (CET)","2021","2","9","7","21","48","em98","22","female","right","70","5","69","1","8","","","","","fixation","","","",""
"1335","img/image_stim_h.png","72","image-keyboard-response","10","67760","0.0-9.0-1.0","bchdny","Tue Feb 09 2021 07:21:48 GMT+0100 (CET)","2021","2","9","7","21","48","em98","22","female","right","70","5","69","1","8","","","","","test","happy","happy","h","true"
"null","<div style=""font-size:60px;"">+</div>","null","html-keyboard-response","11","68267","0.0-9.0-0.1","bchdny","Tue Feb 09 2021 07:21:48 GMT+0100 (CET)","2021","2","9","7","21","48","em98","22","female","right","70","5","69","1","8","","","","","fixation","","","",""
"631","img/image_stim_f_stroop.png","72","image-keyboard-response","12","68902","0.0-9.0-1.1","bchdny","Tue Feb 09 2021 07:21:48 GMT+0100 (CET)","2021","2","9","7","21","48","em98","22","female","right","70","5","69","1","8","","","","","test","fear","happy","f","false"
"null","<div style=""font-size:60px;"">+</div>","null","html-keyboard-response","13","69657","0.0-9.0-0.2","bchdny","Tue Feb 09 2021 07:21:48 GMT+0100 (CET)","2021","2","9","7","21","48","em98","22","female","right","70","5","69","1","8","","","","","fixation","","","",""
"1230","img/image_stim_f.png","70","image-keyboard-response","14","70892","0.0-9.0-1.2","bchdny","Tue Feb 09 2021 07:21:48 GMT+0100 (CET)","2021","2","9","7","21","48","em98","22","female","right","70","5","69","1","8","","","","","test","fear","fear","f","true"
"null","<div style=""font-size:60px;"">+</div>","null","html-keyboard-response","15","71647","0.0-9.0-0.3","bchdny","Tue Feb 09 2021 07:21:48 GMT+0100 (CET)","2021","2","9","7","21","48","em98","22","female","right","70","5","69","1","8","","","","","fixation","","","",""
"444","img/image_stim_h_stroop.png","72","image-keyboard-response","16","72095","0.0-9.0-1.3","bchdny","Tue Feb 09 2021 07:21:48 GMT+0100 (CET)","2021","2","9","7","21","48","em98","22","female","right","70","5","69","1","8","","","","","test","happy","fear","h","true"
"null","<div style=""font-size:60px;"">+</div>","null","html-keyboard-response","17","73600","0.0-9.0-0.4","bchdny","Tue Feb 09 2021 07:21:48 GMT+0100 (CET)","2021","2","9","7","21","48","em98","22","female","right","70","5","69","1","8","","","","","fixation","","","",""
"640","img/image_stim_f_stroop.png","70","image-keyboard-response","18","74244","0.0-9.0-1.4","bchdny","Tue Feb 09 2021 07:21:48 GMT+0100 (CET)","2021","2","9","7","21","48","em98","22","female","right","70","5","69","1","8","","","","","test","fear","happy","f","true"
"null","<div style=""font-size:60px;"">+</div>","null","html-keyboard-response","19","75749","0.0-9.0-0.5","bchdny","Tue Feb 09 2021 07:21:48 GMT+0100 (CET)","2021","2","9","7","21","48","em98","22","female","right","70","5","69","1","8","","","","","fixation","","","",""
"536","img/image_stim_h.png","72","image-keyboard-response","20","76289","0.0-9.0-1.5","bchdny","Tue Feb 09 2021 07:21:48 GMT+0100 (CET)","2021","2","9","7","21","48","em98","22","female","right","70","5","69","1","8","","","","","test","happy","happy","h","true"
"null","<div style=""font-size:60px;"">+</div>","null","html-keyboard-response","21","78045","0.0-9.0-0.6","bchdny","Tue Feb 09 2021 07:21:48 GMT+0100 (CET)","2021","2","9","7","21","48","em98","22","female","right","70","5","69","1","8","","","","","fixation","","","",""
"765","img/image_stim_h_stroop.png","72","image-keyboard-response","22","78813","0.0-9.0-1.6","bchdny","Tue Feb 09 2021 07:21:48 GMT+0100 (CET)","2021","2","9","7","21","48","em98","22","female","right","70","5","69","1","8","","","","","test","happy","fear","h","true"
"null","<div style=""font-size:60px;"">+</div>","null","html-keyboard-response","23","79568","0.0-9.0-0.7","bchdny","Tue Feb 09 2021 07:21:48 GMT+0100 (CET)","2021","2","9","7","21","48","em98","22","female","right","70","5","69","1","8","","","","","fixation","","","",""
"544","img/image_stim_f.png","70","image-keyboard-response","24","80114","0.0-9.0-1.7","bchdny","Tue Feb 09 2021 07:21:48 GMT+0100 (CET)","2021","2","9","7","21","48","em98","22","female","right","70","5","69","1","8","","","","","test","fear","fear","f","true"
"null","<div style=""font-size:60px;"">+</div>","null","html-keyboard-response","25","80370","0.0-9.0-0.8","bchdny","Tue Feb 09 2021 07:21:48 GMT+0100 (CET)","2021","2","9","7","21","48","em98","22","female","right","70","5","69","1","8","","","","","fixation","","","",""
"637","img/image_stim_h.png","72","image-keyboard-response","26","81010","0.0-9.0-1.8","bchdny","Tue Feb 09 2021 07:21:48 GMT+0100 (CET)","2021","2","9","7","21","48","em98","22","female","right","70","5","69","1","8","","","","","test","happy","happy","h","true"
"null","<div style=""font-size:60px;"">+</div>","null","html-keyboard-response","27","81264","0.0-9.0-0.9","bchdny","Tue Feb 09 2021 07:21:48 GMT+0100 (CET)","2021","2","9","7","21","48","em98","22","female","right","70","5","69","1","8","","","","","fixation","","","",""
"532","img/image_stim_f_stroop.png","70","image-keyboard-response","28","81798","0.0-9.0-1.9","bchdny","Tue Feb 09 2021 07:21:48 GMT+0100 (CET)","2021","2","9","7","21","48","em98","22","female","right","70","5","69","1","8","","","","","test","fear","happy","f","true"
"null","<div style=""font-size:60px;"">+</div>","null","html-keyboard-response","29","82304","0.0-9.0-0.10","bchdny","Tue Feb 09 2021 07:21:48 GMT+0100 (CET)","2021","2","9","7","21","48","em98","22","female","right","70","5","69","1","8","","","","","fixation","","","",""
"482","img/image_stim_h_stroop.png","72","image-keyboard-response","30","82789","0.0-9.0-1.10","bchdny","Tue Feb 09 2021 07:21:48 GMT+0100 (CET)","2021","2","9","7","21","48","em98","22","female","right","70","5","69","1","8","","","","","test","happy","fear","h","true"
"null","<div style=""font-size:60px;"">+</div>","null","html-keyboard-response","31","84295","0.0-9.0-0.11","bchdny","Tue Feb 09 2021 07:21:48 GMT+0100 (CET)","2021","2","9","7","21","48","em98","22","female","right","70","5","69","1","8","","","","","fixation","","","",""
"779","img/image_stim_f.png","70","image-keyboard-response","32","85077","0.0-9.0-1.11","bchdny","Tue Feb 09 2021 07:21:48 GMT+0100 (CET)","2021","2","9","7","21","48","em98","22","female","right","70","5","69","1","8","","","","","test","fear","fear","f","true"
"null","<div style=""font-size:60px;"">+</div>","null","html-keyboard-response","33","87083","0.0-9.0-0.12","bchdny","Tue Feb 09 2021 07:21:48 GMT+0100 (CET)","2021","2","9","7","21","48","em98","22","female","right","70","5","69","1","8","","","","","fixation","","","",""
"1249","img/image_stim_h_stroop.png","72","image-keyboard-response","34","88336","0.0-9.0-1.12","bchdny","Tue Feb 09 2021 07:21:48 GMT+0100 (CET)","2021","2","9","7","21","48","em98","22","female","right","70","5","69","1","8","","","","","test","happy","fear","h","true"
"null","<div style=""font-size:60px;"">+</div>","null","html-keyboard-response","35","89842","0.0-9.0-0.13","bchdny","Tue Feb 09 2021 07:21:48 GMT+0100 (CET)","2021","2","9","7","21","48","em98","22","female","right","70","5","69","1","8","","","","","fixation","","","",""
"614","img/image_stim_h.png","72","image-keyboard-response","36","90458","0.0-9.0-1.13","bchdny","Tue Feb 09 2021 07:21:48 GMT+0100 (CET)","2021","2","9","7","21","48","em98","22","female","right","70","5","69","1","8","","","","","test","happy","happy","h","true"
"null","<div style=""font-size:60px;"">+</div>","null","html-keyboard-response","37","91213","0.0-9.0-0.14","bchdny","Tue Feb 09 2021 07:21:48 GMT+0100 (CET)","2021","2","9","7","21","48","em98","22","female","right","70","5","69","1","8","","","","","fixation","","","",""
"763","img/image_stim_f.png","70","image-keyboard-response","38","91979","0.0-9.0-1.14","bchdny","Tue Feb 09 2021 07:21:48 GMT+0100 (CET)","2021","2","9","7","21","48","em98","22","female","right","70","5","69","1","8","","","","","test","fear","fear","f","true"
"null","<div style=""font-size:60px;"">+</div>","null","html-keyboard-response","39","92485","0.0-9.0-0.15","bchdny","Tue Feb 09 2021 07:21:48 GMT+0100 (CET)","2021","2","9","7","21","48","em98","22","female","right","70","5","69","1","8","","","","","fixation","","","",""
"907","img/image_stim_f_stroop.png","72","image-keyboard-response","40","93394","0.0-9.0-1.15","bchdny","Tue Feb 09 2021 07:21:48 GMT+0100 (CET)","2021","2","9","7","21","48","em98","22","female","right","70","5","69","1","8","","","","","test","fear","happy","f","false"
"null","<div style=""font-size:60px;"">+</div>","null","html-keyboard-response","41","93650","0.0-9.0-0.16","bchdny","Tue Feb 09 2021 07:21:48 GMT+0100 (CET)","2021","2","9","7","21","48","em98","22","female","right","70","5","69","1","8","","","","","fixation","","","",""
"552","img/image_stim_f_stroop.png","70","image-keyboard-response","42","94206","0.0-9.0-1.16","bchdny","Tue Feb 09 2021 07:21:48 GMT+0100 (CET)","2021","2","9","7","21","48","em98","22","female","right","70","5","69","1","8","","","","","test","fear","happy","f","true"
"null","<div style=""font-size:60px;"">+</div>","null","html-keyboard-response","43","96211","0.0-9.0-0.17","bchdny","Tue Feb 09 2021 07:21:48 GMT+0100 (CET)","2021","2","9","7","21","48","em98","22","female","right","70","5","69","1","8","","","","","fixation","","","",""
"561","img/image_stim_f.png","70","image-keyboard-response","44","96775","0.0-9.0-1.17","bchdny","Tue Feb 09 2021 07:21:48 GMT+0100 (CET)","2021","2","9","7","21","48","em98","22","female","right","70","5","69","1","8","","","","","test","fear","fear","f","true"
"null","<div style=""font-size:60px;"">+</div>","null","html-keyboard-response","45","97031","0.0-9.0-0.18","bchdny","Tue Feb 09 2021 07:21:48 GMT+0100 (CET)","2021","2","9","7","21","48","em98","22","female","right","70","5","69","1","8","","","","","fixation","","","",""
"1156","img/image_stim_h_stroop.png","70","image-keyboard-response","46","98190","0.0-9.0-1.18","bchdny","Tue Feb 09 2021 07:21:48 GMT+0100 (CET)","2021","2","9","7","21","48","em98","22","female","right","70","5","69","1","8","","","","","test","happy","fear","h","false"
"null","<div style=""font-size:60px;"">+</div>","null","html-keyboard-response","47","99202","0.0-9.0-0.19","bchdny","Tue Feb 09 2021 07:21:48 GMT+0100 (CET)","2021","2","9","7","21","48","em98","22","female","right","70","5","69","1","8","","","","","fixation","","","",""
"778.0000000000146","img/image_stim_h.png","72","image-keyboard-response","48","99984","0.0-9.0-1.19","bchdny","Tue Feb 09 2021 07:21:48 GMT+0100 (CET)","2021","2","9","7","21","48","em98","22","female","right","70","5","69","1","8","","","","","test","happy","happy","h","true"
"null","<div style=""font-size:60px;"">+</div>","null","html-keyboard-response","49","101739","0.0-9.0-0.20","bchdny","Tue Feb 09 2021 07:21:48 GMT+0100 (CET)","2021","2","9","7","21","48","em98","22","female","right","70","5","69","1","8","","","","","fixation","","","",""
"815.9999999999854","img/image_stim_f.png","70","image-keyboard-response","50","102558","0.0-9.0-1.20","bchdny","Tue Feb 09 2021 07:21:48 GMT+0100 (CET)","2021","2","9","7","21","48","em98","22","female","right","70","5","69","1","8","","","","","test","fear","fear","f","true"
"null","<div style=""font-size:60px;"">+</div>","null","html-keyboard-response","51","103313","0.0-9.0-0.21","bchdny","Tue Feb 09 2021 07:21:48 GMT+0100 (CET)","2021","2","9","7","21","48","em98","22","female","right","70","5","69","1","8","","","","","fixation","","","",""
"504","img/image_stim_f_stroop.png","72","image-keyboard-response","52","103820","0.0-9.0-1.21","bchdny","Tue Feb 09 2021 07:21:48 GMT+0100 (CET)","2021","2","9","7","21","48","em98","22","female","right","70","5","69","1","8","","","","","test","fear","happy","f","false"
"null","<div style=""font-size:60px;"">+</div>","null","html-keyboard-response","53","105826","0.0-9.0-0.22","bchdny","Tue Feb 09 2021 07:21:48 GMT+0100 (CET)","2021","2","9","7","21","48","em98","22","female","right","70","5","69","1","8","","","","","fixation","","","",""
"777.9999999999854","img/image_stim_h.png","72","image-keyboard-response","54","106606","0.0-9.0-1.22","bchdny","Tue Feb 09 2021 07:21:48 GMT+0100 (CET)","2021","2","9","7","21","48","em98","22","female","right","70","5","69","1","8","","","","","test","happy","happy","h","true"
"null","<div style=""font-size:60px;"">+</div>","null","html-keyboard-response","55","106861","0.0-9.0-0.23","bchdny","Tue Feb 09 2021 07:21:48 GMT+0100 (CET)","2021","2","9","7","21","48","em98","22","female","right","70","5","69","1","8","","","","","fixation","","","",""
"583","img/image_stim_h_stroop.png","72","image-keyboard-response","56","107446","0.0-9.0-1.23","bchdny","Tue Feb 09 2021 07:21:48 GMT+0100 (CET)","2021","2","9","7","21","48","em98","22","female","right","70","5","69","1","8","","","","","test","happy","fear","h","true"
"null","<div style=""font-size:60px;"">+</div>","null","html-keyboard-response","57","107952","0.0-9.0-0.24","bchdny","Tue Feb 09 2021 07:21:48 GMT+0100 (CET)","2021","2","9","7","21","48","em98","22","female","right","70","5","69","1","8","","","","","fixation","","","",""
"528.0000000000146","img/image_stim_h.png","72","image-keyboard-response","58","108484","0.0-9.0-1.24","bchdny","Tue Feb 09 2021 07:21:48 GMT+0100 (CET)","2021","2","9","7","21","48","em98","22","female","right","70","5","69","1","8","","","","","test","happy","happy","h","true"
"null","<div style=""font-size:60px;"">+</div>","null","html-keyboard-response","59","110239","0.0-9.0-0.25","bchdny","Tue Feb 09 2021 07:21:48 GMT+0100 (CET)","2021","2","9","7","21","48","em98","22","female","right","70","5","69","1","8","","","","","fixation","","","",""
"732","img/image_stim_f.png","70","image-keyboard-response","60","110974","0.0-9.0-1.25","bchdny","Tue Feb 09 2021 07:21:48 GMT+0100 (CET)","2021","2","9","7","21","48","em98","22","female","right","70","5","69","1","8","","","","","test","fear","fear","f","true"
"null","<div style=""font-size:60px;"">+</div>","null","html-keyboard-response","61","111730","0.0-9.0-0.26","bchdny","Tue Feb 09 2021 07:21:48 GMT+0100 (CET)","2021","2","9","7","21","48","em98","22","female","right","70","5","69","1","8","","","","","fixation","","","",""
"525.9999999999854","img/image_stim_h_stroop.png","72","image-keyboard-response","62","112259","0.0-9.0-1.26","bchdny","Tue Feb 09 2021 07:21:48 GMT+0100 (CET)","2021","2","9","7","21","48","em98","22","female","right","70","5","69","1","8","","","","","test","happy","fear","h","true"
"null","<div style=""font-size:60px;"">+</div>","null","html-keyboard-response","63","113766","0.0-9.0-0.27","bchdny","Tue Feb 09 2021 07:21:48 GMT+0100 (CET)","2021","2","9","7","21","48","em98","22","female","right","70","5","69","1","8","","","","","fixation","","","",""
"883","img/image_stim_f_stroop.png","70","image-keyboard-response","64","114651","0.0-9.0-1.27","bchdny","Tue Feb 09 2021 07:21:48 GMT+0100 (CET)","2021","2","9","7","21","48","em98","22","female","right","70","5","69","1","8","","","","","test","fear","happy","f","true"
"null","<div style=""font-size:60px;"">+</div>","null","html-keyboard-response","65","116407","0.0-9.0-0.28","bchdny","Tue Feb 09 2021 07:21:48 GMT+0100 (CET)","2021","2","9","7","21","48","em98","22","female","right","70","5","69","1","8","","","","","fixation","","","",""
"868","img/image_stim_h_stroop.png","72","image-keyboard-response","66","117278","0.0-9.0-1.28","bchdny","Tue Feb 09 2021 07:21:48 GMT+0100 (CET)","2021","2","9","7","21","48","em98","22","female","right","70","5","69","1","8","","","","","test","happy","fear","h","true"
"null","<div style=""font-size:60px;"">+</div>","null","html-keyboard-response","67","118284","0.0-9.0-0.29","bchdny","Tue Feb 09 2021 07:21:48 GMT+0100 (CET)","2021","2","9","7","21","48","em98","22","female","right","70","5","69","1","8","","","","","fixation","","","",""
"656","img/image_stim_f.png","70","image-keyboard-response","68","118943","0.0-9.0-1.29","bchdny","Tue Feb 09 2021 07:21:48 GMT+0100 (CET)","2021","2","9","7","21","48","em98","22","female","right","70","5","69","1","8","","","","","test","fear","fear","f","true"
"null","<div style=""font-size:60px;"">+</div>","null","html-keyboard-response","69","120449","0.0-9.0-0.30","bchdny","Tue Feb 09 2021 07:21:48 GMT+0100 (CET)","2021","2","9","7","21","48","em98","22","female","right","70","5","69","1","8","","","","","fixation","","","",""
"601","img/image_stim_h.png","72","image-keyboard-response","70","121053","0.0-9.0-1.30","bchdny","Tue Feb 09 2021 07:21:48 GMT+0100 (CET)","2021","2","9","7","21","48","em98","22","female","right","70","5","69","1","8","","","","","test","happy","happy","h","true"
"null","<div style=""font-size:60px;"">+</div>","null","html-keyboard-response","71","121310","0.0-9.0-0.31","bchdny","Tue Feb 09 2021 07:21:48 GMT+0100 (CET)","2021","2","9","7","21","48","em98","22","female","right","70","5","69","1","8","","","","","fixation","","","",""
"668","img/image_stim_f_stroop.png","70","image-keyboard-response","72","121981","0.0-9.0-1.31","bchdny","Tue Feb 09 2021 07:21:48 GMT+0100 (CET)","2021","2","9","7","21","48","em98","22","female","right","70","5","69","1","8","","","","","test","fear","happy","f","true"
"null","<div style=""font-size:60px;"">+</div>","null","html-keyboard-response","73","123488","0.0-9.0-0.32","bchdny","Tue Feb 09 2021 07:21:48 GMT+0100 (CET)","2021","2","9","7","21","48","em98","22","female","right","70","5","69","1","8","","","","","fixation","","","",""
"569","img/image_stim_h.png","72","image-keyboard-response","74","124060","0.0-9.0-1.32","bchdny","Tue Feb 09 2021 07:21:48 GMT+0100 (CET)","2021","2","9","7","21","48","em98","22","female","right","70","5","69","1","8","","","","","test","happy","happy","h","true"
"null","<div style=""font-size:60px;"">+</div>","null","html-keyboard-response","75","125067","0.0-9.0-0.33","bchdny","Tue Feb 09 2021 07:21:48 GMT+0100 (CET)","2021","2","9","7","21","48","em98","22","female","right","70","5","69","1","8","","","","","fixation","","","",""
"693","img/image_stim_f_stroop.png","70","image-keyboard-response","76","125764","0.0-9.0-1.33","bchdny","Tue Feb 09 2021 07:21:48 GMT+0100 (CET)","2021","2","9","7","21","48","em98","22","female","right","70","5","69","1","8","","","","","test","fear","happy","f","true"
"null","<div style=""font-size:60px;"">+</div>","null","html-keyboard-response","77","127270","0.0-9.0-0.34","bchdny","Tue Feb 09 2021 07:21:48 GMT+0100 (CET)","2021","2","9","7","21","48","em98","22","female","right","70","5","69","1","8","","","","","fixation","","","",""
"1223.0000000000146","img/image_stim_f.png","70","image-keyboard-response","78","128496","0.0-9.0-1.34","bchdny","Tue Feb 09 2021 07:21:48 GMT+0100 (CET)","2021","2","9","7","21","48","em98","22","female","right","70","5","69","1","8","","","","","test","fear","fear","f","true"
"null","<div style=""font-size:60px;"">+</div>","null","html-keyboard-response","79","129502","0.0-9.0-0.35","bchdny","Tue Feb 09 2021 07:21:48 GMT+0100 (CET)","2021","2","9","7","21","48","em98","22","female","right","70","5","69","1","8","","","","","fixation","","","",""
"527.9999999999854","img/image_stim_h_stroop.png","72","image-keyboard-response","80","130034","0.0-9.0-1.35","bchdny","Tue Feb 09 2021 07:21:48 GMT+0100 (CET)","2021","2","9","7","21","48","em98","22","female","right","70","5","69","1","8","","","","","test","happy","fear","h","true"
