"rt","stimulus","key_press","trial_type","trial_index","time_elapsed","internal_node_id","exp_id","Time","year","month","date","hour","minute","seconds","id","age","Gender","Handedness","mood","fresh","hunger","H_since_Sleep","H_since_Eat","responses","question_order","slider_start","response","test_part","face","word","correct_response","correct"
"1110.080000013113","<p>Welcome to this experiment on daily rhythms and cognition.</p><p>First you will be asked some questions about yourself.</p><p>Then a short experiment will measure your response time.</p><p>Take the test at different times of the day/night.</p><p>The test is anonymous, but comparing your data across time is important.</p><p>Therefore, please make up and remember a personal ID (two letters+ two numbers).</p><p>Use this ID whenever taking the test.</p><p><strong>Press any key to begin.</strong></p>","32","html-keyboard-response","0","1113","0.0-0.0","mhlueq","Tue Feb 16 2021 13:53:55 GMT+0100 (Central European Standard Time)","2021","2","16","13","53","55","um12","19","female","right","58","55","100","2","0","","","","","","","","",""
"2401.945000005071","","","survey-text","1","3521","0.0-1.0","mhlueq","Tue Feb 16 2021 13:53:55 GMT+0100 (Central European Standard Time)","2021","2","16","13","53","55","um12","19","female","right","58","55","100","2","0","{""Q0"":""um12""}","","","","","","","",""
"1422.9850000119768","","","survey-text","2","4953","0.0-2.0","mhlueq","Tue Feb 16 2021 13:53:55 GMT+0100 (Central European Standard Time)","2021","2","16","13","53","55","um12","19","female","right","58","55","100","2","0","{""Q0"":""19""}","","","","","","","",""
"3578.305000002729","","","survey-multi-select","3","8537","0.0-3.0","mhlueq","Tue Feb 16 2021 13:53:55 GMT+0100 (Central European Standard Time)","2021","2","16","13","53","55","um12","19","female","right","58","55","100","2","0","{""Gender"":[""female""],""Hand"":[""right""]}","[0,1]","","","","","","",""
"2465.215000003809","<p>How Sad/Angry or Happy are you right now?</p>","","html-slider-response","4","11013","0.0-4.0","mhlueq","Tue Feb 16 2021 13:53:55 GMT+0100 (Central European Standard Time)","2021","2","16","13","53","55","um12","19","female","right","58","55","100","2","0","","","50","58","","","","",""
"4683.180000007269","<p>How Tired/Sleepy/Distracted or Fresh/Awake/Alert are you right now?</p>","","html-slider-response","5","15699","0.0-5.0","mhlueq","Tue Feb 16 2021 13:53:55 GMT+0100 (Central European Standard Time)","2021","2","16","13","53","55","um12","19","female","right","58","55","100","2","0","","","50","55","","","","",""
"3167.9650000005495","<p>How Hungry or Satiated are you right now?</p>","","html-slider-response","6","18869","0.0-6.0","mhlueq","Tue Feb 16 2021 13:53:55 GMT+0100 (Central European Standard Time)","2021","2","16","13","53","55","um12","19","female","right","58","55","100","2","0","","","50","100","","","","",""
"6559.4400000118185","","","survey-multi-select","7","25453","0.0-7.0","mhlueq","Tue Feb 16 2021 13:53:55 GMT+0100 (Central European Standard Time)","2021","2","16","13","53","55","um12","19","female","right","58","55","100","2","0","{""Sleep"":[""2""],""Eat"":[""0""]}","[0,1]","","","","","","",""
"2231.069999994361","<p>In this experiment, a face and a word will appear in the center of the screen.</p><p>If the face is <strong>happy</strong>, press the letter <strong>H</strong> with <strong>right</strong> index finger.</p><p>If the face is <strong>fearful</strong>, press the letter <strong>F</strong> with <strong>left</strong> index finger.</p><p><strong>Ignore the written words</strong>. Respond as fast as possible while being correct. </p><div style='width: 900px;'><div style='float: left;'><img src='img/stimuli_stroop_happy.png'></img><p class='small'><strong>Press the H key for happy faces</strong></p></div><div class='float: right;'><img src='img/stimuli_stroop_fear.png'></img><p class='small'><strong>Press the F key for faces with fear</strong></p></div></div><p>If the screen turns blank, press <strong>SPACE</strong></p><p><strong>Press any key to begin.</strong></p>","32","html-keyboard-response","8","27693","0.0-8.0","mhlueq","Tue Feb 16 2021 13:53:55 GMT+0100 (Central European Standard Time)","2021","2","16","13","53","55","um12","19","female","right","58","55","100","2","0","","","","","","","","",""
"null","<div style=""font-size:60px;"">+</div>","null","html-keyboard-response","9","30207","0.0-9.0-0.0","mhlueq","Tue Feb 16 2021 13:53:55 GMT+0100 (Central European Standard Time)","2021","2","16","13","53","55","um12","19","female","right","58","55","100","2","0","","","","","fixation","","","",""
"1264.5099999936065","img/image_stim_f_stroop.png","70","image-keyboard-response","10","31474","0.0-9.0-1.0","mhlueq","Tue Feb 16 2021 13:53:55 GMT+0100 (Central European Standard Time)","2021","2","16","13","53","55","um12","19","female","right","58","55","100","2","0","","","","","test","fear","happy","f","true"
"null","<div style=""font-size:60px;"">+</div>","null","html-keyboard-response","11","33483","0.0-9.0-0.1","mhlueq","Tue Feb 16 2021 13:53:55 GMT+0100 (Central European Standard Time)","2021","2","16","13","53","55","um12","19","female","right","58","55","100","2","0","","","","","fixation","","","",""
"476.61000001244247","img/image_stim_h_stroop.png","72","image-keyboard-response","12","33961","0.0-9.0-1.1","mhlueq","Tue Feb 16 2021 13:53:55 GMT+0100 (Central European Standard Time)","2021","2","16","13","53","55","um12","19","female","right","58","55","100","2","0","","","","","test","happy","fear","h","true"
"null","<div style=""font-size:60px;"">+</div>","null","html-keyboard-response","13","35470","0.0-9.0-0.2","mhlueq","Tue Feb 16 2021 13:53:55 GMT+0100 (Central European Standard Time)","2021","2","16","13","53","55","um12","19","female","right","58","55","100","2","0","","","","","fixation","","","",""
"467.20000001369044","img/image_stim_h.png","72","image-keyboard-response","14","35939","0.0-9.0-1.2","mhlueq","Tue Feb 16 2021 13:53:55 GMT+0100 (Central European Standard Time)","2021","2","16","13","53","55","um12","19","female","right","58","55","100","2","0","","","","","test","happy","happy","h","true"
"null","<div style=""font-size:60px;"">+</div>","null","html-keyboard-response","15","37697","0.0-9.0-0.3","mhlueq","Tue Feb 16 2021 13:53:55 GMT+0100 (Central European Standard Time)","2021","2","16","13","53","55","um12","19","female","right","58","55","100","2","0","","","","","fixation","","","",""
"572.8399999934481","img/image_stim_f.png","70","image-keyboard-response","16","38272","0.0-9.0-1.3","mhlueq","Tue Feb 16 2021 13:53:55 GMT+0100 (Central European Standard Time)","2021","2","16","13","53","55","um12","19","female","right","58","55","100","2","0","","","","","test","fear","fear","f","true"
"null","<div style=""font-size:60px;"">+</div>","null","html-keyboard-response","17","40280","0.0-9.0-0.4","mhlueq","Tue Feb 16 2021 13:53:55 GMT+0100 (Central European Standard Time)","2021","2","16","13","53","55","um12","19","female","right","58","55","100","2","0","","","","","fixation","","","",""
"478.16499999316875","img/image_stim_f.png","70","image-keyboard-response","18","40761","0.0-9.0-1.4","mhlueq","Tue Feb 16 2021 13:53:55 GMT+0100 (Central European Standard Time)","2021","2","16","13","53","55","um12","19","female","right","58","55","100","2","0","","","","","test","fear","fear","f","true"
"null","<div style=""font-size:60px;"">+</div>","null","html-keyboard-response","19","42765","0.0-9.0-0.5","mhlueq","Tue Feb 16 2021 13:53:55 GMT+0100 (Central European Standard Time)","2021","2","16","13","53","55","um12","19","female","right","58","55","100","2","0","","","","","fixation","","","",""
"490.8750000031432","img/image_stim_h_stroop.png","72","image-keyboard-response","20","43258","0.0-9.0-1.5","mhlueq","Tue Feb 16 2021 13:53:55 GMT+0100 (Central European Standard Time)","2021","2","16","13","53","55","um12","19","female","right","58","55","100","2","0","","","","","test","happy","fear","h","true"
"null","<div style=""font-size:60px;"">+</div>","null","html-keyboard-response","21","43515","0.0-9.0-0.6","mhlueq","Tue Feb 16 2021 13:53:55 GMT+0100 (Central European Standard Time)","2021","2","16","13","53","55","um12","19","female","right","58","55","100","2","0","","","","","fixation","","","",""
"814.5450000010896","img/image_stim_h.png","72","image-keyboard-response","22","44332","0.0-9.0-1.6","mhlueq","Tue Feb 16 2021 13:53:55 GMT+0100 (Central European Standard Time)","2021","2","16","13","53","55","um12","19","female","right","58","55","100","2","0","","","","","test","happy","happy","h","true"
"null","<div style=""font-size:60px;"">+</div>","null","html-keyboard-response","23","44839","0.0-9.0-0.7","mhlueq","Tue Feb 16 2021 13:53:55 GMT+0100 (Central European Standard Time)","2021","2","16","13","53","55","um12","19","female","right","58","55","100","2","0","","","","","fixation","","","",""
"499.7799999982817","img/image_stim_f_stroop.png","70","image-keyboard-response","24","45340","0.0-9.0-1.7","mhlueq","Tue Feb 16 2021 13:53:55 GMT+0100 (Central European Standard Time)","2021","2","16","13","53","55","um12","19","female","right","58","55","100","2","0","","","","","test","fear","happy","f","true"
"null","<div style=""font-size:60px;"">+</div>","null","html-keyboard-response","25","47097","0.0-9.0-0.8","mhlueq","Tue Feb 16 2021 13:53:55 GMT+0100 (Central European Standard Time)","2021","2","16","13","53","55","um12","19","female","right","58","55","100","2","0","","","","","fixation","","","",""
"450.32000000355765","img/image_stim_f.png","70","image-keyboard-response","26","47549","0.0-9.0-1.8","mhlueq","Tue Feb 16 2021 13:53:55 GMT+0100 (Central European Standard Time)","2021","2","16","13","53","55","um12","19","female","right","58","55","100","2","0","","","","","test","fear","fear","f","true"
"null","<div style=""font-size:60px;"">+</div>","null","html-keyboard-response","27","48804","0.0-9.0-0.9","mhlueq","Tue Feb 16 2021 13:53:55 GMT+0100 (Central European Standard Time)","2021","2","16","13","53","55","um12","19","female","right","58","55","100","2","0","","","","","fixation","","","",""
"328.3999999985099","img/image_stim_f_stroop.png","70","image-keyboard-response","28","49135","0.0-9.0-1.9","mhlueq","Tue Feb 16 2021 13:53:55 GMT+0100 (Central European Standard Time)","2021","2","16","13","53","55","um12","19","female","right","58","55","100","2","0","","","","","test","fear","happy","f","true"
"null","<div style=""font-size:60px;"">+</div>","null","html-keyboard-response","29","50644","0.0-9.0-0.10","mhlueq","Tue Feb 16 2021 13:53:55 GMT+0100 (Central European Standard Time)","2021","2","16","13","53","55","um12","19","female","right","58","55","100","2","0","","","","","fixation","","","",""
"465.1700000104029","img/image_stim_h_stroop.png","72","image-keyboard-response","30","51111","0.0-9.0-1.10","mhlueq","Tue Feb 16 2021 13:53:55 GMT+0100 (Central European Standard Time)","2021","2","16","13","53","55","um12","19","female","right","58","55","100","2","0","","","","","test","happy","fear","h","true"
"null","<div style=""font-size:60px;"">+</div>","null","html-keyboard-response","31","51370","0.0-9.0-0.11","mhlueq","Tue Feb 16 2021 13:53:55 GMT+0100 (Central European Standard Time)","2021","2","16","13","53","55","um12","19","female","right","58","55","100","2","0","","","","","fixation","","","",""
"492.259999999078","img/image_stim_h.png","72","image-keyboard-response","32","51865","0.0-9.0-1.11","mhlueq","Tue Feb 16 2021 13:53:55 GMT+0100 (Central European Standard Time)","2021","2","16","13","53","55","um12","19","female","right","58","55","100","2","0","","","","","test","happy","happy","h","true"
"null","<div style=""font-size:60px;"">+</div>","null","html-keyboard-response","33","52120","0.0-9.0-0.12","mhlueq","Tue Feb 16 2021 13:53:55 GMT+0100 (Central European Standard Time)","2021","2","16","13","53","55","um12","19","female","right","58","55","100","2","0","","","","","fixation","","","",""
"490.27000000933185","img/image_stim_f.png","70","image-keyboard-response","34","52611","0.0-9.0-1.12","mhlueq","Tue Feb 16 2021 13:53:55 GMT+0100 (Central European Standard Time)","2021","2","16","13","53","55","um12","19","female","right","58","55","100","2","0","","","","","test","fear","fear","f","true"
"null","<div style=""font-size:60px;"">+</div>","null","html-keyboard-response","35","53871","0.0-9.0-0.13","mhlueq","Tue Feb 16 2021 13:53:55 GMT+0100 (Central European Standard Time)","2021","2","16","13","53","55","um12","19","female","right","58","55","100","2","0","","","","","fixation","","","",""
"512.5700000062352","img/image_stim_h.png","72","image-keyboard-response","36","54385","0.0-9.0-1.13","mhlueq","Tue Feb 16 2021 13:53:55 GMT+0100 (Central European Standard Time)","2021","2","16","13","53","55","um12","19","female","right","58","55","100","2","0","","","","","test","happy","happy","h","true"
"null","<div style=""font-size:60px;"">+</div>","null","html-keyboard-response","37","55393","0.0-9.0-0.14","mhlueq","Tue Feb 16 2021 13:53:55 GMT+0100 (Central European Standard Time)","2021","2","16","13","53","55","um12","19","female","right","58","55","100","2","0","","","","","fixation","","","",""
"538.3700000093086","img/image_stim_f_stroop.png","70","image-keyboard-response","38","55933","0.0-9.0-1.14","mhlueq","Tue Feb 16 2021 13:53:55 GMT+0100 (Central European Standard Time)","2021","2","16","13","53","55","um12","19","female","right","58","55","100","2","0","","","","","test","fear","happy","f","true"
"null","<div style=""font-size:60px;"">+</div>","null","html-keyboard-response","39","57442","0.0-9.0-0.15","mhlueq","Tue Feb 16 2021 13:53:55 GMT+0100 (Central European Standard Time)","2021","2","16","13","53","55","um12","19","female","right","58","55","100","2","0","","","","","fixation","","","",""
"558.3849999966333","img/image_stim_h_stroop.png","72","image-keyboard-response","40","58002","0.0-9.0-1.15","mhlueq","Tue Feb 16 2021 13:53:55 GMT+0100 (Central European Standard Time)","2021","2","16","13","53","55","um12","19","female","right","58","55","100","2","0","","","","","test","happy","fear","h","true"
"null","<div style=""font-size:60px;"">+</div>","null","html-keyboard-response","41","58262","0.0-9.0-0.16","mhlueq","Tue Feb 16 2021 13:53:55 GMT+0100 (Central European Standard Time)","2021","2","16","13","53","55","um12","19","female","right","58","55","100","2","0","","","","","fixation","","","",""
"600.6250000064028","img/image_stim_f.png","70","image-keyboard-response","42","58864","0.0-9.0-1.16","mhlueq","Tue Feb 16 2021 13:53:55 GMT+0100 (Central European Standard Time)","2021","2","16","13","53","55","um12","19","female","right","58","55","100","2","0","","","","","test","fear","fear","f","true"
"null","<div style=""font-size:60px;"">+</div>","null","html-keyboard-response","43","59622","0.0-9.0-0.17","mhlueq","Tue Feb 16 2021 13:53:55 GMT+0100 (Central European Standard Time)","2021","2","16","13","53","55","um12","19","female","right","58","55","100","2","0","","","","","fixation","","","",""
"494.77000000479165","img/image_stim_h_stroop.png","72","image-keyboard-response","44","60119","0.0-9.0-1.17","mhlueq","Tue Feb 16 2021 13:53:55 GMT+0100 (Central European Standard Time)","2021","2","16","13","53","55","um12","19","female","right","58","55","100","2","0","","","","","test","happy","fear","h","true"
"null","<div style=""font-size:60px;"">+</div>","null","html-keyboard-response","45","60622","0.0-9.0-0.18","mhlueq","Tue Feb 16 2021 13:53:55 GMT+0100 (Central European Standard Time)","2021","2","16","13","53","55","um12","19","female","right","58","55","100","2","0","","","","","fixation","","","",""
"699.319999999716","img/image_stim_h.png","72","image-keyboard-response","46","61323","0.0-9.0-1.18","mhlueq","Tue Feb 16 2021 13:53:55 GMT+0100 (Central European Standard Time)","2021","2","16","13","53","55","um12","19","female","right","58","55","100","2","0","","","","","test","happy","happy","h","true"
"null","<div style=""font-size:60px;"">+</div>","null","html-keyboard-response","47","62081","0.0-9.0-0.19","mhlueq","Tue Feb 16 2021 13:53:55 GMT+0100 (Central European Standard Time)","2021","2","16","13","53","55","um12","19","female","right","58","55","100","2","0","","","","","fixation","","","",""
"421.4849999989383","img/image_stim_f_stroop.png","70","image-keyboard-response","48","62504","0.0-9.0-1.19","mhlueq","Tue Feb 16 2021 13:53:55 GMT+0100 (Central European Standard Time)","2021","2","16","13","53","55","um12","19","female","right","58","55","100","2","0","","","","","test","fear","happy","f","true"
"null","<div style=""font-size:60px;"">+</div>","null","html-keyboard-response","49","64514","0.0-9.0-0.20","mhlueq","Tue Feb 16 2021 13:53:55 GMT+0100 (Central European Standard Time)","2021","2","16","13","53","55","um12","19","female","right","58","55","100","2","0","","","","","fixation","","","",""
"458.46500000334345","img/image_stim_h_stroop.png","72","image-keyboard-response","50","64974","0.0-9.0-1.20","mhlueq","Tue Feb 16 2021 13:53:55 GMT+0100 (Central European Standard Time)","2021","2","16","13","53","55","um12","19","female","right","58","55","100","2","0","","","","","test","happy","fear","h","true"
"null","<div style=""font-size:60px;"">+</div>","null","html-keyboard-response","51","65233","0.0-9.0-0.21","mhlueq","Tue Feb 16 2021 13:53:55 GMT+0100 (Central European Standard Time)","2021","2","16","13","53","55","um12","19","female","right","58","55","100","2","0","","","","","fixation","","","",""
"861.6600000095787","img/image_stim_f_stroop.png","70","image-keyboard-response","52","66096","0.0-9.0-1.21","mhlueq","Tue Feb 16 2021 13:53:55 GMT+0100 (Central European Standard Time)","2021","2","16","13","53","55","um12","19","female","right","58","55","100","2","0","","","","","test","fear","happy","f","true"
"null","<div style=""font-size:60px;"">+</div>","null","html-keyboard-response","53","67355","0.0-9.0-0.22","mhlueq","Tue Feb 16 2021 13:53:55 GMT+0100 (Central European Standard Time)","2021","2","16","13","53","55","um12","19","female","right","58","55","100","2","0","","","","","fixation","","","",""
"525.3300000040326","img/image_stim_f.png","70","image-keyboard-response","54","67882","0.0-9.0-1.22","mhlueq","Tue Feb 16 2021 13:53:55 GMT+0100 (Central European Standard Time)","2021","2","16","13","53","55","um12","19","female","right","58","55","100","2","0","","","","","test","fear","fear","f","true"
"null","<div style=""font-size:60px;"">+</div>","null","html-keyboard-response","55","68140","0.0-9.0-0.23","mhlueq","Tue Feb 16 2021 13:53:55 GMT+0100 (Central European Standard Time)","2021","2","16","13","53","55","um12","19","female","right","58","55","100","2","0","","","","","fixation","","","",""
"466.4150000025984","img/image_stim_h.png","72","image-keyboard-response","56","68609","0.0-9.0-1.23","mhlueq","Tue Feb 16 2021 13:53:55 GMT+0100 (Central European Standard Time)","2021","2","16","13","53","55","um12","19","female","right","58","55","100","2","0","","","","","test","happy","happy","h","true"
"null","<div style=""font-size:60px;"">+</div>","null","html-keyboard-response","57","70368","0.0-9.0-0.24","mhlueq","Tue Feb 16 2021 13:53:55 GMT+0100 (Central European Standard Time)","2021","2","16","13","53","55","um12","19","female","right","58","55","100","2","0","","","","","fixation","","","",""
"476.8199999962235","img/image_stim_f_stroop.png","70","image-keyboard-response","58","70847","0.0-9.0-1.24","mhlueq","Tue Feb 16 2021 13:53:55 GMT+0100 (Central European Standard Time)","2021","2","16","13","53","55","um12","19","female","right","58","55","100","2","0","","","","","test","fear","happy","f","true"
"null","<div style=""font-size:60px;"">+</div>","null","html-keyboard-response","59","71106","0.0-9.0-0.25","mhlueq","Tue Feb 16 2021 13:53:55 GMT+0100 (Central European Standard Time)","2021","2","16","13","53","55","um12","19","female","right","58","55","100","2","0","","","","","fixation","","","",""
"571.2950000015553","img/image_stim_h.png","72","image-keyboard-response","60","71681","0.0-9.0-1.25","mhlueq","Tue Feb 16 2021 13:53:55 GMT+0100 (Central European Standard Time)","2021","2","16","13","53","55","um12","19","female","right","58","55","100","2","0","","","","","test","happy","happy","h","true"
"null","<div style=""font-size:60px;"">+</div>","null","html-keyboard-response","61","72440","0.0-9.0-0.26","mhlueq","Tue Feb 16 2021 13:53:55 GMT+0100 (Central European Standard Time)","2021","2","16","13","53","55","um12","19","female","right","58","55","100","2","0","","","","","fixation","","","",""
"491.7399999976624","img/image_stim_h_stroop.png","72","image-keyboard-response","62","72934","0.0-9.0-1.26","mhlueq","Tue Feb 16 2021 13:53:55 GMT+0100 (Central European Standard Time)","2021","2","16","13","53","55","um12","19","female","right","58","55","100","2","0","","","","","test","happy","fear","h","true"
"null","<div style=""font-size:60px;"">+</div>","null","html-keyboard-response","63","74693","0.0-9.0-0.27","mhlueq","Tue Feb 16 2021 13:53:55 GMT+0100 (Central European Standard Time)","2021","2","16","13","53","55","um12","19","female","right","58","55","100","2","0","","","","","fixation","","","",""
"471.3400000036927","img/image_stim_f.png","70","image-keyboard-response","64","75167","0.0-9.0-1.27","mhlueq","Tue Feb 16 2021 13:53:55 GMT+0100 (Central European Standard Time)","2021","2","16","13","53","55","um12","19","female","right","58","55","100","2","0","","","","","test","fear","fear","f","true"
"null","<div style=""font-size:60px;"">+</div>","null","html-keyboard-response","65","76679","0.0-9.0-0.28","mhlueq","Tue Feb 16 2021 13:53:55 GMT+0100 (Central European Standard Time)","2021","2","16","13","53","55","um12","19","female","right","58","55","100","2","0","","","","","fixation","","","",""
"455.2049999911105","img/image_stim_h_stroop.png","72","image-keyboard-response","66","77136","0.0-9.0-1.28","mhlueq","Tue Feb 16 2021 13:53:55 GMT+0100 (Central European Standard Time)","2021","2","16","13","53","55","um12","19","female","right","58","55","100","2","0","","","","","test","happy","fear","h","true"
"null","<div style=""font-size:60px;"">+</div>","null","html-keyboard-response","67","77895","0.0-9.0-0.29","mhlueq","Tue Feb 16 2021 13:53:55 GMT+0100 (Central European Standard Time)","2021","2","16","13","53","55","um12","19","female","right","58","55","100","2","0","","","","","fixation","","","",""
"465.714999998454","img/image_stim_h.png","72","image-keyboard-response","68","78363","0.0-9.0-1.29","mhlueq","Tue Feb 16 2021 13:53:55 GMT+0100 (Central European Standard Time)","2021","2","16","13","53","55","um12","19","female","right","58","55","100","2","0","","","","","test","happy","happy","h","true"
"null","<div style=""font-size:60px;"">+</div>","null","html-keyboard-response","69","80370","0.0-9.0-0.30","mhlueq","Tue Feb 16 2021 13:53:55 GMT+0100 (Central European Standard Time)","2021","2","16","13","53","55","um12","19","female","right","58","55","100","2","0","","","","","fixation","","","",""
"503.8150000036694","img/image_stim_f.png","70","image-keyboard-response","70","80876","0.0-9.0-1.30","mhlueq","Tue Feb 16 2021 13:53:55 GMT+0100 (Central European Standard Time)","2021","2","16","13","53","55","um12","19","female","right","58","55","100","2","0","","","","","test","fear","fear","f","true"
"null","<div style=""font-size:60px;"">+</div>","null","html-keyboard-response","71","82885","0.0-9.0-0.31","mhlueq","Tue Feb 16 2021 13:53:55 GMT+0100 (Central European Standard Time)","2021","2","16","13","53","55","um12","19","female","right","58","55","100","2","0","","","","","fixation","","","",""
"666.639999995823","img/image_stim_f_stroop.png","70","image-keyboard-response","72","83553","0.0-9.0-1.31","mhlueq","Tue Feb 16 2021 13:53:55 GMT+0100 (Central European Standard Time)","2021","2","16","13","53","55","um12","19","female","right","58","55","100","2","0","","","","","test","fear","happy","f","true"
"null","<div style=""font-size:60px;"">+</div>","null","html-keyboard-response","73","84311","0.0-9.0-0.32","mhlueq","Tue Feb 16 2021 13:53:55 GMT+0100 (Central European Standard Time)","2021","2","16","13","53","55","um12","19","female","right","58","55","100","2","0","","","","","fixation","","","",""
"476.01499999291264","img/image_stim_f_stroop.png","70","image-keyboard-response","74","84789","0.0-9.0-1.32","mhlueq","Tue Feb 16 2021 13:53:55 GMT+0100 (Central European Standard Time)","2021","2","16","13","53","55","um12","19","female","right","58","55","100","2","0","","","","","test","fear","happy","f","true"
"null","<div style=""font-size:60px;"">+</div>","null","html-keyboard-response","75","85050","0.0-9.0-0.33","mhlueq","Tue Feb 16 2021 13:53:55 GMT+0100 (Central European Standard Time)","2021","2","16","13","53","55","um12","19","female","right","58","55","100","2","0","","","","","fixation","","","",""
"478.21500001009554","img/image_stim_f.png","70","image-keyboard-response","76","85530","0.0-9.0-1.33","mhlueq","Tue Feb 16 2021 13:53:55 GMT+0100 (Central European Standard Time)","2021","2","16","13","53","55","um12","19","female","right","58","55","100","2","0","","","","","test","fear","fear","f","true"
"null","<div style=""font-size:60px;"">+</div>","null","html-keyboard-response","77","85787","0.0-9.0-0.34","mhlueq","Tue Feb 16 2021 13:53:55 GMT+0100 (Central European Standard Time)","2021","2","16","13","53","55","um12","19","female","right","58","55","100","2","0","","","","","fixation","","","",""
"488.1849999947008","img/image_stim_h_stroop.png","72","image-keyboard-response","78","86277","0.0-9.0-1.34","mhlueq","Tue Feb 16 2021 13:53:55 GMT+0100 (Central European Standard Time)","2021","2","16","13","53","55","um12","19","female","right","58","55","100","2","0","","","","","test","happy","fear","h","true"
"null","<div style=""font-size:60px;"">+</div>","null","html-keyboard-response","79","86533","0.0-9.0-0.35","mhlueq","Tue Feb 16 2021 13:53:55 GMT+0100 (Central European Standard Time)","2021","2","16","13","53","55","um12","19","female","right","58","55","100","2","0","","","","","fixation","","","",""
"393.37499999965075","img/image_stim_h.png","72","image-keyboard-response","80","86928","0.0-9.0-1.35","mhlueq","Tue Feb 16 2021 13:53:55 GMT+0100 (Central European Standard Time)","2021","2","16","13","53","55","um12","19","female","right","58","55","100","2","0","","","","","test","happy","happy","h","true"
