"rt","stimulus","key_press","trial_type","trial_index","time_elapsed","internal_node_id","exp_id","Time","year","month","date","hour","minute","seconds","id","age","Gender","Handedness","mood","fresh","hunger","H_since_Sleep","H_since_Eat","responses","question_order","slider_start","response","test_part","face","word","correct_response","correct"
"6503.070000006119","<p>Welcome to this experiment on daily rhythms and cognition.</p><p>First you will be asked some questions about yourself.</p><p>Then a short experiment will measure your response time.</p><p>Take the test at different times of the day/night.</p><p>The test is anonymous, but comparing your data across time is important.</p><p>Therefore, please make up and remember a personal ID (two letters+ two numbers).</p><p>Use this ID whenever taking the test.</p><p><strong>Press any key to begin.</strong></p>","32","html-keyboard-response","0","6506","0.0-0.0","y1gn97","Mon Feb 08 2021 15:32:13 GMT+0100 (Central European Standard Time)","2021","2","8","15","32","13","um12","19","female","right","55","24","70","9","1","","","","","","","","",""
"4194.7349999973085","","","survey-text","1","10709","0.0-1.0","y1gn97","Mon Feb 08 2021 15:32:13 GMT+0100 (Central European Standard Time)","2021","2","8","15","32","13","um12","19","female","right","55","24","70","9","1","{""Q0"":""um12""}","","","","","","","",""
"3757.710000005318","","","survey-text","2","14473","0.0-2.0","y1gn97","Mon Feb 08 2021 15:32:13 GMT+0100 (Central European Standard Time)","2021","2","8","15","32","13","um12","19","female","right","55","24","70","9","1","{""Q0"":""19""}","","","","","","","",""
"5528.385000012349","","","survey-multi-select","3","20010","0.0-3.0","y1gn97","Mon Feb 08 2021 15:32:13 GMT+0100 (Central European Standard Time)","2021","2","8","15","32","13","um12","19","female","right","55","24","70","9","1","{""Gender"":[""female""],""Hand"":[""right""]}","[0,1]","","","","","","",""
"11094.810000009602","<p>How Sad/Angry or Happy are you right now?</p>","","html-slider-response","4","31115","0.0-4.0","y1gn97","Mon Feb 08 2021 15:32:13 GMT+0100 (Central European Standard Time)","2021","2","8","15","32","13","um12","19","female","right","55","24","70","9","1","","","50","55","","","","",""
"6338.76999997301","<p>How Tired/Sleepy/Distracted or Fresh/Awake/Alert are you right now?</p>","","html-slider-response","5","37457","0.0-5.0","y1gn97","Mon Feb 08 2021 15:32:13 GMT+0100 (Central European Standard Time)","2021","2","8","15","32","13","um12","19","female","right","55","24","70","9","1","","","50","24","","","","",""
"12711.370000004536","<p>How Hungry or Satiated are you right now?</p>","","html-slider-response","6","50171","0.0-6.0","y1gn97","Mon Feb 08 2021 15:32:13 GMT+0100 (Central European Standard Time)","2021","2","8","15","32","13","um12","19","female","right","55","24","70","9","1","","","50","70","","","","",""
"140771.05999999912","","","survey-multi-select","7","190987","0.0-7.0","y1gn97","Mon Feb 08 2021 15:32:13 GMT+0100 (Central European Standard Time)","2021","2","8","15","32","13","um12","19","female","right","55","24","70","9","1","{""Sleep"":[""9""],""Eat"":[""1""]}","[0,1]","","","","","","",""
"54806.39000001247","<p>In this experiment, a face and a word will appear in the center of the screen.</p><p>If the face is <strong>happy</strong>, press the letter <strong>H</strong> with <strong>right</strong> index finger.</p><p>If the face is <strong>fearful</strong>, press the letter <strong>F</strong> with <strong>left</strong> index finger.</p><p><strong>Ignore the written words</strong>. Respond as fast as possible while being correct. </p><div style='width: 900px;'><div style='float: left;'><img src='img/stimuli_stroop_happy.png'></img><p class='small'><strong>Press the H key for happy faces</strong></p></div><div class='float: right;'><img src='img/stimuli_stroop_fear.png'></img><p class='small'><strong>Press the F key for faces with fear</strong></p></div></div><p>If the screen turns blank, press <strong>SPACE</strong></p><p><strong>Press any key to begin.</strong></p>","32","html-keyboard-response","8","245824","0.0-8.0","y1gn97","Mon Feb 08 2021 15:32:13 GMT+0100 (Central European Standard Time)","2021","2","8","15","32","13","um12","19","female","right","55","24","70","9","1","","","","","","","","",""
"null","<div style=""font-size:60px;"">+</div>","null","html-keyboard-response","9","248088","0.0-9.0-0.0","y1gn97","Mon Feb 08 2021 15:32:13 GMT+0100 (Central European Standard Time)","2021","2","8","15","32","13","um12","19","female","right","55","24","70","9","1","","","","","fixation","","","",""
"2196.4399999997113","img/image_stim_h_stroop.png","70","image-keyboard-response","10","250313","0.0-9.0-1.0","y1gn97","Mon Feb 08 2021 15:32:13 GMT+0100 (Central European Standard Time)","2021","2","8","15","32","13","um12","19","female","right","55","24","70","9","1","","","","","test","happy","fear","h","false"
"null","<div style=""font-size:60px;"">+</div>","null","html-keyboard-response","11","252072","0.0-9.0-0.1","y1gn97","Mon Feb 08 2021 15:32:13 GMT+0100 (Central European Standard Time)","2021","2","8","15","32","13","um12","19","female","right","55","24","70","9","1","","","","","fixation","","","",""
"4255.174999998417","img/image_stim_h.png","72","image-keyboard-response","12","256330","0.0-9.0-1.1","y1gn97","Mon Feb 08 2021 15:32:13 GMT+0100 (Central European Standard Time)","2021","2","8","15","32","13","um12","19","female","right","55","24","70","9","1","","","","","test","happy","happy","h","true"
"null","<div style=""font-size:60px;"">+</div>","null","html-keyboard-response","13","257082","0.0-9.0-0.2","y1gn97","Mon Feb 08 2021 15:32:13 GMT+0100 (Central European Standard Time)","2021","2","8","15","32","13","um12","19","female","right","55","24","70","9","1","","","","","fixation","","","",""
"1982.5100000016391","img/image_stim_f.png","70","image-keyboard-response","14","259067","0.0-9.0-1.2","y1gn97","Mon Feb 08 2021 15:32:13 GMT+0100 (Central European Standard Time)","2021","2","8","15","32","13","um12","19","female","right","55","24","70","9","1","","","","","test","fear","fear","f","true"
"null","<div style=""font-size:60px;"">+</div>","null","html-keyboard-response","15","260323","0.0-9.0-0.3","y1gn97","Mon Feb 08 2021 15:32:13 GMT+0100 (Central European Standard Time)","2021","2","8","15","32","13","um12","19","female","right","55","24","70","9","1","","","","","fixation","","","",""
"1349.545000004582","img/image_stim_f_stroop.png","70","image-keyboard-response","16","261676","0.0-9.0-1.3","y1gn97","Mon Feb 08 2021 15:32:13 GMT+0100 (Central European Standard Time)","2021","2","8","15","32","13","um12","19","female","right","55","24","70","9","1","","","","","test","fear","happy","f","true"
"null","<div style=""font-size:60px;"">+</div>","null","html-keyboard-response","17","262681","0.0-9.0-0.4","y1gn97","Mon Feb 08 2021 15:32:13 GMT+0100 (Central European Standard Time)","2021","2","8","15","32","13","um12","19","female","right","55","24","70","9","1","","","","","fixation","","","",""
"753.3999999868684","img/image_stim_h.png","72","image-keyboard-response","18","263436","0.0-9.0-1.4","y1gn97","Mon Feb 08 2021 15:32:13 GMT+0100 (Central European Standard Time)","2021","2","8","15","32","13","um12","19","female","right","55","24","70","9","1","","","","","test","happy","happy","h","true"
"null","<div style=""font-size:60px;"">+</div>","null","html-keyboard-response","19","264195","0.0-9.0-0.5","y1gn97","Mon Feb 08 2021 15:32:13 GMT+0100 (Central European Standard Time)","2021","2","8","15","32","13","um12","19","female","right","55","24","70","9","1","","","","","fixation","","","",""
"608.0549999896903","img/image_stim_f.png","70","image-keyboard-response","20","264805","0.0-9.0-1.5","y1gn97","Mon Feb 08 2021 15:32:13 GMT+0100 (Central European Standard Time)","2021","2","8","15","32","13","um12","19","female","right","55","24","70","9","1","","","","","test","fear","fear","f","true"
"null","<div style=""font-size:60px;"">+</div>","null","html-keyboard-response","21","266311","0.0-9.0-0.6","y1gn97","Mon Feb 08 2021 15:32:13 GMT+0100 (Central European Standard Time)","2021","2","8","15","32","13","um12","19","female","right","55","24","70","9","1","","","","","fixation","","","",""
"1283.5099999792874","img/image_stim_h_stroop.png","72","image-keyboard-response","22","267597","0.0-9.0-1.6","y1gn97","Mon Feb 08 2021 15:32:13 GMT+0100 (Central European Standard Time)","2021","2","8","15","32","13","um12","19","female","right","55","24","70","9","1","","","","","test","happy","fear","h","true"
"null","<div style=""font-size:60px;"">+</div>","null","html-keyboard-response","23","269107","0.0-9.0-0.7","y1gn97","Mon Feb 08 2021 15:32:13 GMT+0100 (Central European Standard Time)","2021","2","8","15","32","13","um12","19","female","right","55","24","70","9","1","","","","","fixation","","","",""
"543.680000002496","img/image_stim_f_stroop.png","70","image-keyboard-response","24","269653","0.0-9.0-1.7","y1gn97","Mon Feb 08 2021 15:32:13 GMT+0100 (Central European Standard Time)","2021","2","8","15","32","13","um12","19","female","right","55","24","70","9","1","","","","","test","fear","happy","f","true"
"null","<div style=""font-size:60px;"">+</div>","null","html-keyboard-response","25","270909","0.0-9.0-0.8","y1gn97","Mon Feb 08 2021 15:32:13 GMT+0100 (Central European Standard Time)","2021","2","8","15","32","13","um12","19","female","right","55","24","70","9","1","","","","","fixation","","","",""
"420.2250000089407","img/image_stim_h_stroop.png","72","image-keyboard-response","26","271331","0.0-9.0-1.8","y1gn97","Mon Feb 08 2021 15:32:13 GMT+0100 (Central European Standard Time)","2021","2","8","15","32","13","um12","19","female","right","55","24","70","9","1","","","","","test","happy","fear","h","true"
"null","<div style=""font-size:60px;"">+</div>","null","html-keyboard-response","27","271841","0.0-9.0-0.9","y1gn97","Mon Feb 08 2021 15:32:13 GMT+0100 (Central European Standard Time)","2021","2","8","15","32","13","um12","19","female","right","55","24","70","9","1","","","","","fixation","","","",""
"878.8249999925029","img/image_stim_h.png","72","image-keyboard-response","28","272723","0.0-9.0-1.9","y1gn97","Mon Feb 08 2021 15:32:13 GMT+0100 (Central European Standard Time)","2021","2","8","15","32","13","um12","19","female","right","55","24","70","9","1","","","","","test","happy","happy","h","true"
"null","<div style=""font-size:60px;"">+</div>","null","html-keyboard-response","29","274729","0.0-9.0-0.10","y1gn97","Mon Feb 08 2021 15:32:13 GMT+0100 (Central European Standard Time)","2021","2","8","15","32","13","um12","19","female","right","55","24","70","9","1","","","","","fixation","","","",""
"655.2049999882001","img/image_stim_f_stroop.png","70","image-keyboard-response","30","275387","0.0-9.0-1.10","y1gn97","Mon Feb 08 2021 15:32:13 GMT+0100 (Central European Standard Time)","2021","2","8","15","32","13","um12","19","female","right","55","24","70","9","1","","","","","test","fear","happy","f","true"
"null","<div style=""font-size:60px;"">+</div>","null","html-keyboard-response","31","277142","0.0-9.0-0.11","y1gn97","Mon Feb 08 2021 15:32:13 GMT+0100 (Central European Standard Time)","2021","2","8","15","32","13","um12","19","female","right","55","24","70","9","1","","","","","fixation","","","",""
"583.8700000022072","img/image_stim_f.png","70","image-keyboard-response","32","277727","0.0-9.0-1.11","y1gn97","Mon Feb 08 2021 15:32:13 GMT+0100 (Central European Standard Time)","2021","2","8","15","32","13","um12","19","female","right","55","24","70","9","1","","","","","test","fear","fear","f","true"
"null","<div style=""font-size:60px;"">+</div>","null","html-keyboard-response","33","279731","0.0-9.0-0.12","y1gn97","Mon Feb 08 2021 15:32:13 GMT+0100 (Central European Standard Time)","2021","2","8","15","32","13","um12","19","female","right","55","24","70","9","1","","","","","fixation","","","",""
"462.1399999887217","img/image_stim_f.png","70","image-keyboard-response","34","280195","0.0-9.0-1.12","y1gn97","Mon Feb 08 2021 15:32:13 GMT+0100 (Central European Standard Time)","2021","2","8","15","32","13","um12","19","female","right","55","24","70","9","1","","","","","test","fear","fear","f","true"
"null","<div style=""font-size:60px;"">+</div>","null","html-keyboard-response","35","282204","0.0-9.0-0.13","y1gn97","Mon Feb 08 2021 15:32:13 GMT+0100 (Central European Standard Time)","2021","2","8","15","32","13","um12","19","female","right","55","24","70","9","1","","","","","fixation","","","",""
"647.0050000061747","img/image_stim_h.png","72","image-keyboard-response","36","282853","0.0-9.0-1.13","y1gn97","Mon Feb 08 2021 15:32:13 GMT+0100 (Central European Standard Time)","2021","2","8","15","32","13","um12","19","female","right","55","24","70","9","1","","","","","test","happy","happy","h","true"
"null","<div style=""font-size:60px;"">+</div>","null","html-keyboard-response","37","283358","0.0-9.0-0.14","y1gn97","Mon Feb 08 2021 15:32:13 GMT+0100 (Central European Standard Time)","2021","2","8","15","32","13","um12","19","female","right","55","24","70","9","1","","","","","fixation","","","",""
"813.2999999797903","img/image_stim_f_stroop.png","70","image-keyboard-response","38","284173","0.0-9.0-1.14","y1gn97","Mon Feb 08 2021 15:32:13 GMT+0100 (Central European Standard Time)","2021","2","8","15","32","13","um12","19","female","right","55","24","70","9","1","","","","","test","fear","happy","f","true"
"null","<div style=""font-size:60px;"">+</div>","null","html-keyboard-response","39","285183","0.0-9.0-0.15","y1gn97","Mon Feb 08 2021 15:32:13 GMT+0100 (Central European Standard Time)","2021","2","8","15","32","13","um12","19","female","right","55","24","70","9","1","","","","","fixation","","","",""
"777.4849999987055","img/image_stim_h_stroop.png","72","image-keyboard-response","40","285962","0.0-9.0-1.15","y1gn97","Mon Feb 08 2021 15:32:13 GMT+0100 (Central European Standard Time)","2021","2","8","15","32","13","um12","19","female","right","55","24","70","9","1","","","","","test","happy","fear","h","true"
"null","<div style=""font-size:60px;"">+</div>","null","html-keyboard-response","41","287215","0.0-9.0-0.16","y1gn97","Mon Feb 08 2021 15:32:13 GMT+0100 (Central European Standard Time)","2021","2","8","15","32","13","um12","19","female","right","55","24","70","9","1","","","","","fixation","","","",""
"997.6100000203587","img/image_stim_f_stroop.png","72","image-keyboard-response","42","288215","0.0-9.0-1.16","y1gn97","Mon Feb 08 2021 15:32:13 GMT+0100 (Central European Standard Time)","2021","2","8","15","32","13","um12","19","female","right","55","24","70","9","1","","","","","test","fear","happy","f","false"
"null","<div style=""font-size:60px;"">+</div>","null","html-keyboard-response","43","289972","0.0-9.0-0.17","y1gn97","Mon Feb 08 2021 15:32:13 GMT+0100 (Central European Standard Time)","2021","2","8","15","32","13","um12","19","female","right","55","24","70","9","1","","","","","fixation","","","",""
"582.9800000065006","img/image_stim_f.png","70","image-keyboard-response","44","290558","0.0-9.0-1.17","y1gn97","Mon Feb 08 2021 15:32:13 GMT+0100 (Central European Standard Time)","2021","2","8","15","32","13","um12","19","female","right","55","24","70","9","1","","","","","test","fear","fear","f","true"
"null","<div style=""font-size:60px;"">+</div>","null","html-keyboard-response","45","291573","0.0-9.0-0.18","y1gn97","Mon Feb 08 2021 15:32:13 GMT+0100 (Central European Standard Time)","2021","2","8","15","32","13","um12","19","female","right","55","24","70","9","1","","","","","fixation","","","",""
"518.5699999856297","img/image_stim_h.png","72","image-keyboard-response","46","292093","0.0-9.0-1.18","y1gn97","Mon Feb 08 2021 15:32:13 GMT+0100 (Central European Standard Time)","2021","2","8","15","32","13","um12","19","female","right","55","24","70","9","1","","","","","test","happy","happy","h","true"
"null","<div style=""font-size:60px;"">+</div>","null","html-keyboard-response","47","294102","0.0-9.0-0.19","y1gn97","Mon Feb 08 2021 15:32:13 GMT+0100 (Central European Standard Time)","2021","2","8","15","32","13","um12","19","female","right","55","24","70","9","1","","","","","fixation","","","",""
"529.2199999967124","img/image_stim_h_stroop.png","70","image-keyboard-response","48","294633","0.0-9.0-1.19","y1gn97","Mon Feb 08 2021 15:32:13 GMT+0100 (Central European Standard Time)","2021","2","8","15","32","13","um12","19","female","right","55","24","70","9","1","","","","","test","happy","fear","h","false"
"null","<div style=""font-size:60px;"">+</div>","null","html-keyboard-response","49","296142","0.0-9.0-0.20","y1gn97","Mon Feb 08 2021 15:32:13 GMT+0100 (Central European Standard Time)","2021","2","8","15","32","13","um12","19","female","right","55","24","70","9","1","","","","","fixation","","","",""
"546.7199999839067","img/image_stim_h.png","72","image-keyboard-response","50","296691","0.0-9.0-1.20","y1gn97","Mon Feb 08 2021 15:32:13 GMT+0100 (Central European Standard Time)","2021","2","8","15","32","13","um12","19","female","right","55","24","70","9","1","","","","","test","happy","happy","h","true"
"null","<div style=""font-size:60px;"">+</div>","null","html-keyboard-response","51","297700","0.0-9.0-0.21","y1gn97","Mon Feb 08 2021 15:32:13 GMT+0100 (Central European Standard Time)","2021","2","8","15","32","13","um12","19","female","right","55","24","70","9","1","","","","","fixation","","","",""
"623.0499999946915","img/image_stim_f.png","70","image-keyboard-response","52","298324","0.0-9.0-1.21","y1gn97","Mon Feb 08 2021 15:32:13 GMT+0100 (Central European Standard Time)","2021","2","8","15","32","13","um12","19","female","right","55","24","70","9","1","","","","","test","fear","fear","f","true"
"null","<div style=""font-size:60px;"">+</div>","null","html-keyboard-response","53","300084","0.0-9.0-0.22","y1gn97","Mon Feb 08 2021 15:32:13 GMT+0100 (Central European Standard Time)","2021","2","8","15","32","13","um12","19","female","right","55","24","70","9","1","","","","","fixation","","","",""
"282.4499999987893","img/image_stim_f_stroop.png","72","image-keyboard-response","54","300368","0.0-9.0-1.22","y1gn97","Mon Feb 08 2021 15:32:13 GMT+0100 (Central European Standard Time)","2021","2","8","15","32","13","um12","19","female","right","55","24","70","9","1","","","","","test","fear","happy","f","false"
"null","<div style=""font-size:60px;"">+</div>","null","html-keyboard-response","55","302378","0.0-9.0-0.23","y1gn97","Mon Feb 08 2021 15:32:13 GMT+0100 (Central European Standard Time)","2021","2","8","15","32","13","um12","19","female","right","55","24","70","9","1","","","","","fixation","","","",""
"827.6550000009593","img/image_stim_h_stroop.png","72","image-keyboard-response","56","303207","0.0-9.0-1.23","y1gn97","Mon Feb 08 2021 15:32:13 GMT+0100 (Central European Standard Time)","2021","2","8","15","32","13","um12","19","female","right","55","24","70","9","1","","","","","test","happy","fear","h","true"
"null","<div style=""font-size:60px;"">+</div>","null","html-keyboard-response","57","304715","0.0-9.0-0.24","y1gn97","Mon Feb 08 2021 15:32:13 GMT+0100 (Central European Standard Time)","2021","2","8","15","32","13","um12","19","female","right","55","24","70","9","1","","","","","fixation","","","",""
"990.445000003092","img/image_stim_f_stroop.png","70","image-keyboard-response","58","305707","0.0-9.0-1.24","y1gn97","Mon Feb 08 2021 15:32:13 GMT+0100 (Central European Standard Time)","2021","2","8","15","32","13","um12","19","female","right","55","24","70","9","1","","","","","test","fear","happy","f","true"
"null","<div style=""font-size:60px;"">+</div>","null","html-keyboard-response","59","306966","0.0-9.0-0.25","y1gn97","Mon Feb 08 2021 15:32:13 GMT+0100 (Central European Standard Time)","2021","2","8","15","32","13","um12","19","female","right","55","24","70","9","1","","","","","fixation","","","",""
"580.4749999952037","img/image_stim_h.png","72","image-keyboard-response","60","307548","0.0-9.0-1.25","y1gn97","Mon Feb 08 2021 15:32:13 GMT+0100 (Central European Standard Time)","2021","2","8","15","32","13","um12","19","female","right","55","24","70","9","1","","","","","test","happy","happy","h","true"
"null","<div style=""font-size:60px;"">+</div>","null","html-keyboard-response","61","309560","0.0-9.0-0.26","y1gn97","Mon Feb 08 2021 15:32:13 GMT+0100 (Central European Standard Time)","2021","2","8","15","32","13","um12","19","female","right","55","24","70","9","1","","","","","fixation","","","",""
"773.9650000003166","img/image_stim_h_stroop.png","72","image-keyboard-response","62","310336","0.0-9.0-1.26","y1gn97","Mon Feb 08 2021 15:32:13 GMT+0100 (Central European Standard Time)","2021","2","8","15","32","13","um12","19","female","right","55","24","70","9","1","","","","","test","happy","fear","h","true"
"null","<div style=""font-size:60px;"">+</div>","null","html-keyboard-response","63","312354","0.0-9.0-0.27","y1gn97","Mon Feb 08 2021 15:32:13 GMT+0100 (Central European Standard Time)","2021","2","8","15","32","13","um12","19","female","right","55","24","70","9","1","","","","","fixation","","","",""
"760.0800000072923","img/image_stim_f.png","70","image-keyboard-response","64","313117","0.0-9.0-1.27","y1gn97","Mon Feb 08 2021 15:32:13 GMT+0100 (Central European Standard Time)","2021","2","8","15","32","13","um12","19","female","right","55","24","70","9","1","","","","","test","fear","fear","f","true"
"null","<div style=""font-size:60px;"">+</div>","null","html-keyboard-response","65","314876","0.0-9.0-0.28","y1gn97","Mon Feb 08 2021 15:32:13 GMT+0100 (Central European Standard Time)","2021","2","8","15","32","13","um12","19","female","right","55","24","70","9","1","","","","","fixation","","","",""
"674.8899999947753","img/image_stim_f_stroop.png","70","image-keyboard-response","66","315553","0.0-9.0-1.28","y1gn97","Mon Feb 08 2021 15:32:13 GMT+0100 (Central European Standard Time)","2021","2","8","15","32","13","um12","19","female","right","55","24","70","9","1","","","","","test","fear","happy","f","true"
"null","<div style=""font-size:60px;"">+</div>","null","html-keyboard-response","67","316314","0.0-9.0-0.29","y1gn97","Mon Feb 08 2021 15:32:13 GMT+0100 (Central European Standard Time)","2021","2","8","15","32","13","um12","19","female","right","55","24","70","9","1","","","","","fixation","","","",""
"476.72000000602566","img/image_stim_f.png","70","image-keyboard-response","68","316792","0.0-9.0-1.29","y1gn97","Mon Feb 08 2021 15:32:13 GMT+0100 (Central European Standard Time)","2021","2","8","15","32","13","um12","19","female","right","55","24","70","9","1","","","","","test","fear","fear","f","true"
"null","<div style=""font-size:60px;"">+</div>","null","html-keyboard-response","69","318052","0.0-9.0-0.30","y1gn97","Mon Feb 08 2021 15:32:13 GMT+0100 (Central European Standard Time)","2021","2","8","15","32","13","um12","19","female","right","55","24","70","9","1","","","","","fixation","","","",""
"833.90500000678","img/image_stim_h.png","72","image-keyboard-response","70","318888","0.0-9.0-1.30","y1gn97","Mon Feb 08 2021 15:32:13 GMT+0100 (Central European Standard Time)","2021","2","8","15","32","13","um12","19","female","right","55","24","70","9","1","","","","","test","happy","happy","h","true"
"null","<div style=""font-size:60px;"">+</div>","null","html-keyboard-response","71","319644","0.0-9.0-0.31","y1gn97","Mon Feb 08 2021 15:32:13 GMT+0100 (Central European Standard Time)","2021","2","8","15","32","13","um12","19","female","right","55","24","70","9","1","","","","","fixation","","","",""
"1199.0349999978207","img/image_stim_h_stroop.png","72","image-keyboard-response","72","320845","0.0-9.0-1.31","y1gn97","Mon Feb 08 2021 15:32:13 GMT+0100 (Central European Standard Time)","2021","2","8","15","32","13","um12","19","female","right","55","24","70","9","1","","","","","test","happy","fear","h","true"
"null","<div style=""font-size:60px;"">+</div>","null","html-keyboard-response","73","321851","0.0-9.0-0.32","y1gn97","Mon Feb 08 2021 15:32:13 GMT+0100 (Central European Standard Time)","2021","2","8","15","32","13","um12","19","female","right","55","24","70","9","1","","","","","fixation","","","",""
"684.4700000074226","img/image_stim_h.png","72","image-keyboard-response","74","322537","0.0-9.0-1.32","y1gn97","Mon Feb 08 2021 15:32:13 GMT+0100 (Central European Standard Time)","2021","2","8","15","32","13","um12","19","female","right","55","24","70","9","1","","","","","test","happy","happy","h","true"
"null","<div style=""font-size:60px;"">+</div>","null","html-keyboard-response","75","323548","0.0-9.0-0.33","y1gn97","Mon Feb 08 2021 15:32:13 GMT+0100 (Central European Standard Time)","2021","2","8","15","32","13","um12","19","female","right","55","24","70","9","1","","","","","fixation","","","",""
"466.7899999767542","img/image_stim_f.png","70","image-keyboard-response","76","324016","0.0-9.0-1.33","y1gn97","Mon Feb 08 2021 15:32:13 GMT+0100 (Central European Standard Time)","2021","2","8","15","32","13","um12","19","female","right","55","24","70","9","1","","","","","test","fear","fear","f","true"
"null","<div style=""font-size:60px;"">+</div>","null","html-keyboard-response","77","325025","0.0-9.0-0.34","y1gn97","Mon Feb 08 2021 15:32:13 GMT+0100 (Central European Standard Time)","2021","2","8","15","32","13","um12","19","female","right","55","24","70","9","1","","","","","fixation","","","",""
"1742.9699999920558","img/image_stim_f_stroop.png","72","image-keyboard-response","78","326770","0.0-9.0-1.34","y1gn97","Mon Feb 08 2021 15:32:13 GMT+0100 (Central European Standard Time)","2021","2","8","15","32","13","um12","19","female","right","55","24","70","9","1","","","","","test","fear","happy","f","false"
"null","<div style=""font-size:60px;"">+</div>","null","html-keyboard-response","79","328281","0.0-9.0-0.35","y1gn97","Mon Feb 08 2021 15:32:13 GMT+0100 (Central European Standard Time)","2021","2","8","15","32","13","um12","19","female","right","55","24","70","9","1","","","","","fixation","","","",""
"856.6149999969639","img/image_stim_h_stroop.png","72","image-keyboard-response","80","329139","0.0-9.0-1.35","y1gn97","Mon Feb 08 2021 15:32:13 GMT+0100 (Central European Standard Time)","2021","2","8","15","32","13","um12","19","female","right","55","24","70","9","1","","","","","test","happy","fear","h","true"
