"rt","stimulus","key_press","trial_type","trial_index","time_elapsed","internal_node_id","exp_id","Time","year","month","date","hour","minute","seconds","id","age","Gender","Handedness","mood","fresh","hunger","H_since_Sleep","H_since_Eat","responses","question_order","slider_start","response","test_part","face","word","correct_response","correct"
"1413","<p>Welcome to this experiment on daily rhythms and cognition.</p><p>First you will be asked some questions about yourself.</p><p>Then a short experiment will measure your response time.</p><p>Take the test at different times of the day/night.</p><p>The test is anonymous, but comparing your data across time is important.</p><p>Therefore, please make up and remember a personal ID (two letters+ two numbers).</p><p>Use this ID whenever taking the test.</p><p><strong>Press any key to begin.</strong></p>","32","html-keyboard-response","0","1416","0.0-0.0","17kvsd","Thu Feb 18 2021 12:23:59 GMT+0100 (CET)","2021","2","18","12","23","59","hp99","21","female","right","75","61","50","4","4","","","","","","","","",""
"1832","","","survey-text","1","3269","0.0-1.0","17kvsd","Thu Feb 18 2021 12:23:59 GMT+0100 (CET)","2021","2","18","12","23","59","hp99","21","female","right","75","61","50","4","4","{""Q0"":""hp99""}","","","","","","","",""
"1126.000000000001","","","survey-text","2","4402","0.0-2.0","17kvsd","Thu Feb 18 2021 12:23:59 GMT+0100 (CET)","2021","2","18","12","23","59","hp99","21","female","right","75","61","50","4","4","{""Q0"":""21""}","","","","","","","",""
"2541","","","survey-multi-select","3","6946","0.0-3.0","17kvsd","Thu Feb 18 2021 12:23:59 GMT+0100 (CET)","2021","2","18","12","23","59","hp99","21","female","right","75","61","50","4","4","{""Gender"":[""female""],""Hand"":[""right""]}","[0,1]","","","","","","",""
"3195","<p>How Sad/Angry or Happy are you right now?</p>","","html-slider-response","4","10144","0.0-4.0","17kvsd","Thu Feb 18 2021 12:23:59 GMT+0100 (CET)","2021","2","18","12","23","59","hp99","21","female","right","75","61","50","4","4","","","50","75","","","","",""
"3187","<p>How Tired/Sleepy/Distracted or Fresh/Awake/Alert are you right now?</p>","","html-slider-response","5","13332","0.0-5.0","17kvsd","Thu Feb 18 2021 12:23:59 GMT+0100 (CET)","2021","2","18","12","23","59","hp99","21","female","right","75","61","50","4","4","","","50","61","","","","",""
"2817","<p>How Hungry or Satiated are you right now?</p>","","html-slider-response","6","16150","0.0-6.0","17kvsd","Thu Feb 18 2021 12:23:59 GMT+0100 (CET)","2021","2","18","12","23","59","hp99","21","female","right","75","61","50","4","4","","","50","50","","","","",""
"6522","","","survey-multi-select","7","22684","0.0-7.0","17kvsd","Thu Feb 18 2021 12:23:59 GMT+0100 (CET)","2021","2","18","12","23","59","hp99","21","female","right","75","61","50","4","4","{""Sleep"":[""4""],""Eat"":[""4""]}","[0,1]","","","","","","",""
"1688","<p>In this experiment, a face and a word will appear in the center of the screen.</p><p>If the face is <strong>happy</strong>, press the letter <strong>H</strong> with <strong>right</strong> index finger.</p><p>If the face is <strong>fearful</strong>, press the letter <strong>F</strong> with <strong>left</strong> index finger.</p><p><strong>Ignore the written words</strong>. Respond as fast as possible while being correct. </p><div style='width: 900px;'><div style='float: left;'><img src='img/stimuli_stroop_happy.png'></img><p class='small'><strong>Press the H key for happy faces</strong></p></div><div class='float: right;'><img src='img/stimuli_stroop_fear.png'></img><p class='small'><strong>Press the F key for faces with fear</strong></p></div></div><p>If the screen turns blank, press <strong>SPACE</strong></p><p><strong>Press any key to begin.</strong></p>","32","html-keyboard-response","8","24374","0.0-8.0","17kvsd","Thu Feb 18 2021 12:23:59 GMT+0100 (CET)","2021","2","18","12","23","59","hp99","21","female","right","75","61","50","4","4","","","","","","","","",""
"null","<div style=""font-size:60px;"">+</div>","null","html-keyboard-response","9","27377","0.0-9.0-0.0","17kvsd","Thu Feb 18 2021 12:23:59 GMT+0100 (CET)","2021","2","18","12","23","59","hp99","21","female","right","75","61","50","4","4","","","","","fixation","","","",""
"672","img/image_stim_f_stroop.png","70","image-keyboard-response","10","28054","0.0-9.0-1.0","17kvsd","Thu Feb 18 2021 12:23:59 GMT+0100 (CET)","2021","2","18","12","23","59","hp99","21","female","right","75","61","50","4","4","","","","","test","fear","happy","f","true"
"null","<div style=""font-size:60px;"">+</div>","null","html-keyboard-response","11","29309","0.0-9.0-0.1","17kvsd","Thu Feb 18 2021 12:23:59 GMT+0100 (CET)","2021","2","18","12","23","59","hp99","21","female","right","75","61","50","4","4","","","","","fixation","","","",""
"628","img/image_stim_h_stroop.png","72","image-keyboard-response","12","29940","0.0-9.0-1.1","17kvsd","Thu Feb 18 2021 12:23:59 GMT+0100 (CET)","2021","2","18","12","23","59","hp99","21","female","right","75","61","50","4","4","","","","","test","happy","fear","h","true"
"null","<div style=""font-size:60px;"">+</div>","null","html-keyboard-response","13","31194","0.0-9.0-0.2","17kvsd","Thu Feb 18 2021 12:23:59 GMT+0100 (CET)","2021","2","18","12","23","59","hp99","21","female","right","75","61","50","4","4","","","","","fixation","","","",""
"444","img/image_stim_h.png","72","image-keyboard-response","14","31641","0.0-9.0-1.2","17kvsd","Thu Feb 18 2021 12:23:59 GMT+0100 (CET)","2021","2","18","12","23","59","hp99","21","female","right","75","61","50","4","4","","","","","test","happy","happy","h","true"
"null","<div style=""font-size:60px;"">+</div>","null","html-keyboard-response","15","32394","0.0-9.0-0.3","17kvsd","Thu Feb 18 2021 12:23:59 GMT+0100 (CET)","2021","2","18","12","23","59","hp99","21","female","right","75","61","50","4","4","","","","","fixation","","","",""
"534","img/image_stim_f.png","70","image-keyboard-response","16","32931","0.0-9.0-1.3","17kvsd","Thu Feb 18 2021 12:23:59 GMT+0100 (CET)","2021","2","18","12","23","59","hp99","21","female","right","75","61","50","4","4","","","","","test","fear","fear","f","true"
"null","<div style=""font-size:60px;"">+</div>","null","html-keyboard-response","17","34934","0.0-9.0-0.4","17kvsd","Thu Feb 18 2021 12:23:59 GMT+0100 (CET)","2021","2","18","12","23","59","hp99","21","female","right","75","61","50","4","4","","","","","fixation","","","",""
"392.0000000000073","img/image_stim_h.png","72","image-keyboard-response","18","35328","0.0-9.0-1.4","17kvsd","Thu Feb 18 2021 12:23:59 GMT+0100 (CET)","2021","2","18","12","23","59","hp99","21","female","right","75","61","50","4","4","","","","","test","happy","happy","h","true"
"null","<div style=""font-size:60px;"">+</div>","null","html-keyboard-response","19","36082","0.0-9.0-0.5","17kvsd","Thu Feb 18 2021 12:23:59 GMT+0100 (CET)","2021","2","18","12","23","59","hp99","21","female","right","75","61","50","4","4","","","","","fixation","","","",""
"747.0000000000073","img/image_stim_f_stroop.png","72","image-keyboard-response","20","36831","0.0-9.0-1.5","17kvsd","Thu Feb 18 2021 12:23:59 GMT+0100 (CET)","2021","2","18","12","23","59","hp99","21","female","right","75","61","50","4","4","","","","","test","fear","happy","f","false"
"null","<div style=""font-size:60px;"">+</div>","null","html-keyboard-response","21","38585","0.0-9.0-0.6","17kvsd","Thu Feb 18 2021 12:23:59 GMT+0100 (CET)","2021","2","18","12","23","59","hp99","21","female","right","75","61","50","4","4","","","","","fixation","","","",""
"457","img/image_stim_h_stroop.png","72","image-keyboard-response","22","39045","0.0-9.0-1.6","17kvsd","Thu Feb 18 2021 12:23:59 GMT+0100 (CET)","2021","2","18","12","23","59","hp99","21","female","right","75","61","50","4","4","","","","","test","happy","fear","h","true"
"null","<div style=""font-size:60px;"">+</div>","null","html-keyboard-response","23","40050","0.0-9.0-0.7","17kvsd","Thu Feb 18 2021 12:23:59 GMT+0100 (CET)","2021","2","18","12","23","59","hp99","21","female","right","75","61","50","4","4","","","","","fixation","","","",""
"583","img/image_stim_f.png","70","image-keyboard-response","24","40635","0.0-9.0-1.7","17kvsd","Thu Feb 18 2021 12:23:59 GMT+0100 (CET)","2021","2","18","12","23","59","hp99","21","female","right","75","61","50","4","4","","","","","test","fear","fear","f","true"
"null","<div style=""font-size:60px;"">+</div>","null","html-keyboard-response","25","42139","0.0-9.0-0.8","17kvsd","Thu Feb 18 2021 12:23:59 GMT+0100 (CET)","2021","2","18","12","23","59","hp99","21","female","right","75","61","50","4","4","","","","","fixation","","","",""
"484","img/image_stim_h.png","72","image-keyboard-response","26","42625","0.0-9.0-1.8","17kvsd","Thu Feb 18 2021 12:23:59 GMT+0100 (CET)","2021","2","18","12","23","59","hp99","21","female","right","75","61","50","4","4","","","","","test","happy","happy","h","true"
"null","<div style=""font-size:60px;"">+</div>","null","html-keyboard-response","27","44130","0.0-9.0-0.9","17kvsd","Thu Feb 18 2021 12:23:59 GMT+0100 (CET)","2021","2","18","12","23","59","hp99","21","female","right","75","61","50","4","4","","","","","fixation","","","",""
"463","img/image_stim_f_stroop.png","72","image-keyboard-response","28","44594","0.0-9.0-1.9","17kvsd","Thu Feb 18 2021 12:23:59 GMT+0100 (CET)","2021","2","18","12","23","59","hp99","21","female","right","75","61","50","4","4","","","","","test","fear","happy","f","false"
"null","<div style=""font-size:60px;"">+</div>","null","html-keyboard-response","29","45099","0.0-9.0-0.10","17kvsd","Thu Feb 18 2021 12:23:59 GMT+0100 (CET)","2021","2","18","12","23","59","hp99","21","female","right","75","61","50","4","4","","","","","fixation","","","",""
"754","img/image_stim_f.png","70","image-keyboard-response","30","45855","0.0-9.0-1.10","17kvsd","Thu Feb 18 2021 12:23:59 GMT+0100 (CET)","2021","2","18","12","23","59","hp99","21","female","right","75","61","50","4","4","","","","","test","fear","fear","f","true"
"null","<div style=""font-size:60px;"">+</div>","null","html-keyboard-response","31","47109","0.0-9.0-0.11","17kvsd","Thu Feb 18 2021 12:23:59 GMT+0100 (CET)","2021","2","18","12","23","59","hp99","21","female","right","75","61","50","4","4","","","","","fixation","","","",""
"560","img/image_stim_h_stroop.png","72","image-keyboard-response","32","47672","0.0-9.0-1.11","17kvsd","Thu Feb 18 2021 12:23:59 GMT+0100 (CET)","2021","2","18","12","23","59","hp99","21","female","right","75","61","50","4","4","","","","","test","happy","fear","h","true"
"null","<div style=""font-size:60px;"">+</div>","null","html-keyboard-response","33","49176","0.0-9.0-0.12","17kvsd","Thu Feb 18 2021 12:23:59 GMT+0100 (CET)","2021","2","18","12","23","59","hp99","21","female","right","75","61","50","4","4","","","","","fixation","","","",""
"637.0000000000073","img/image_stim_h.png","72","image-keyboard-response","34","49816","0.0-9.0-1.12","17kvsd","Thu Feb 18 2021 12:23:59 GMT+0100 (CET)","2021","2","18","12","23","59","hp99","21","female","right","75","61","50","4","4","","","","","test","happy","happy","h","true"
"null","<div style=""font-size:60px;"">+</div>","null","html-keyboard-response","35","50820","0.0-9.0-0.13","17kvsd","Thu Feb 18 2021 12:23:59 GMT+0100 (CET)","2021","2","18","12","23","59","hp99","21","female","right","75","61","50","4","4","","","","","fixation","","","",""
"656","img/image_stim_f_stroop.png","70","image-keyboard-response","36","51479","0.0-9.0-1.13","17kvsd","Thu Feb 18 2021 12:23:59 GMT+0100 (CET)","2021","2","18","12","23","59","hp99","21","female","right","75","61","50","4","4","","","","","test","fear","happy","f","true"
"null","<div style=""font-size:60px;"">+</div>","null","html-keyboard-response","37","52483","0.0-9.0-0.14","17kvsd","Thu Feb 18 2021 12:23:59 GMT+0100 (CET)","2021","2","18","12","23","59","hp99","21","female","right","75","61","50","4","4","","","","","fixation","","","",""
"583","img/image_stim_f.png","70","image-keyboard-response","38","53068","0.0-9.0-1.14","17kvsd","Thu Feb 18 2021 12:23:59 GMT+0100 (CET)","2021","2","18","12","23","59","hp99","21","female","right","75","61","50","4","4","","","","","test","fear","fear","f","true"
"null","<div style=""font-size:60px;"">+</div>","null","html-keyboard-response","39","55072","0.0-9.0-0.15","17kvsd","Thu Feb 18 2021 12:23:59 GMT+0100 (CET)","2021","2","18","12","23","59","hp99","21","female","right","75","61","50","4","4","","","","","fixation","","","",""
"402.9999999999927","img/image_stim_h_stroop.png","72","image-keyboard-response","40","55478","0.0-9.0-1.15","17kvsd","Thu Feb 18 2021 12:23:59 GMT+0100 (CET)","2021","2","18","12","23","59","hp99","21","female","right","75","61","50","4","4","","","","","test","happy","fear","h","true"
"null","<div style=""font-size:60px;"">+</div>","null","html-keyboard-response","41","55732","0.0-9.0-0.16","17kvsd","Thu Feb 18 2021 12:23:59 GMT+0100 (CET)","2021","2","18","12","23","59","hp99","21","female","right","75","61","50","4","4","","","","","fixation","","","",""
"723","img/image_stim_h.png","72","image-keyboard-response","42","56457","0.0-9.0-1.16","17kvsd","Thu Feb 18 2021 12:23:59 GMT+0100 (CET)","2021","2","18","12","23","59","hp99","21","female","right","75","61","50","4","4","","","","","test","happy","happy","h","true"
"null","<div style=""font-size:60px;"">+</div>","null","html-keyboard-response","43","58462","0.0-9.0-0.17","17kvsd","Thu Feb 18 2021 12:23:59 GMT+0100 (CET)","2021","2","18","12","23","59","hp99","21","female","right","75","61","50","4","4","","","","","fixation","","","",""
"679","img/image_stim_f_stroop.png","70","image-keyboard-response","44","59142","0.0-9.0-1.17","17kvsd","Thu Feb 18 2021 12:23:59 GMT+0100 (CET)","2021","2","18","12","23","59","hp99","21","female","right","75","61","50","4","4","","","","","test","fear","happy","f","true"
"null","<div style=""font-size:60px;"">+</div>","null","html-keyboard-response","45","59896","0.0-9.0-0.18","17kvsd","Thu Feb 18 2021 12:23:59 GMT+0100 (CET)","2021","2","18","12","23","59","hp99","21","female","right","75","61","50","4","4","","","","","fixation","","","",""
"666","img/image_stim_f.png","70","image-keyboard-response","46","60564","0.0-9.0-1.18","17kvsd","Thu Feb 18 2021 12:23:59 GMT+0100 (CET)","2021","2","18","12","23","59","hp99","21","female","right","75","61","50","4","4","","","","","test","fear","fear","f","true"
"null","<div style=""font-size:60px;"">+</div>","null","html-keyboard-response","47","61569","0.0-9.0-0.19","17kvsd","Thu Feb 18 2021 12:23:59 GMT+0100 (CET)","2021","2","18","12","23","59","hp99","21","female","right","75","61","50","4","4","","","","","fixation","","","",""
"618","img/image_stim_h_stroop.png","72","image-keyboard-response","48","62189","0.0-9.0-1.19","17kvsd","Thu Feb 18 2021 12:23:59 GMT+0100 (CET)","2021","2","18","12","23","59","hp99","21","female","right","75","61","50","4","4","","","","","test","happy","fear","h","true"
"null","<div style=""font-size:60px;"">+</div>","null","html-keyboard-response","49","62694","0.0-9.0-0.20","17kvsd","Thu Feb 18 2021 12:23:59 GMT+0100 (CET)","2021","2","18","12","23","59","hp99","21","female","right","75","61","50","4","4","","","","","fixation","","","",""
"687.9999999999927","img/image_stim_f_stroop.png","70","image-keyboard-response","50","63384","0.0-9.0-1.20","17kvsd","Thu Feb 18 2021 12:23:59 GMT+0100 (CET)","2021","2","18","12","23","59","hp99","21","female","right","75","61","50","4","4","","","","","test","fear","happy","f","true"
"null","<div style=""font-size:60px;"">+</div>","null","html-keyboard-response","51","65388","0.0-9.0-0.21","17kvsd","Thu Feb 18 2021 12:23:59 GMT+0100 (CET)","2021","2","18","12","23","59","hp99","21","female","right","75","61","50","4","4","","","","","fixation","","","",""
"704","img/image_stim_h.png","72","image-keyboard-response","52","66095","0.0-9.0-1.21","17kvsd","Thu Feb 18 2021 12:23:59 GMT+0100 (CET)","2021","2","18","12","23","59","hp99","21","female","right","75","61","50","4","4","","","","","test","happy","happy","h","true"
"null","<div style=""font-size:60px;"">+</div>","null","html-keyboard-response","53","67849","0.0-9.0-0.22","17kvsd","Thu Feb 18 2021 12:23:59 GMT+0100 (CET)","2021","2","18","12","23","59","hp99","21","female","right","75","61","50","4","4","","","","","fixation","","","",""
"647","img/image_stim_f.png","70","image-keyboard-response","54","68499","0.0-9.0-1.22","17kvsd","Thu Feb 18 2021 12:23:59 GMT+0100 (CET)","2021","2","18","12","23","59","hp99","21","female","right","75","61","50","4","4","","","","","test","fear","fear","f","true"
"null","<div style=""font-size:60px;"">+</div>","null","html-keyboard-response","55","69504","0.0-9.0-0.23","17kvsd","Thu Feb 18 2021 12:23:59 GMT+0100 (CET)","2021","2","18","12","23","59","hp99","21","female","right","75","61","50","4","4","","","","","fixation","","","",""
"877","img/image_stim_h_stroop.png","72","image-keyboard-response","56","70384","0.0-9.0-1.23","17kvsd","Thu Feb 18 2021 12:23:59 GMT+0100 (CET)","2021","2","18","12","23","59","hp99","21","female","right","75","61","50","4","4","","","","","test","happy","fear","h","true"
"null","<div style=""font-size:60px;"">+</div>","null","html-keyboard-response","57","70888","0.0-9.0-0.24","17kvsd","Thu Feb 18 2021 12:23:59 GMT+0100 (CET)","2021","2","18","12","23","59","hp99","21","female","right","75","61","50","4","4","","","","","fixation","","","",""
"620","img/image_stim_f.png","70","image-keyboard-response","58","71510","0.0-9.0-1.24","17kvsd","Thu Feb 18 2021 12:23:59 GMT+0100 (CET)","2021","2","18","12","23","59","hp99","21","female","right","75","61","50","4","4","","","","","test","fear","fear","f","true"
"null","<div style=""font-size:60px;"">+</div>","null","html-keyboard-response","59","71764","0.0-9.0-0.25","17kvsd","Thu Feb 18 2021 12:23:59 GMT+0100 (CET)","2021","2","18","12","23","59","hp99","21","female","right","75","61","50","4","4","","","","","fixation","","","",""
"737","img/image_stim_h.png","72","image-keyboard-response","60","72503","0.0-9.0-1.25","17kvsd","Thu Feb 18 2021 12:23:59 GMT+0100 (CET)","2021","2","18","12","23","59","hp99","21","female","right","75","61","50","4","4","","","","","test","happy","happy","h","true"
"null","<div style=""font-size:60px;"">+</div>","null","html-keyboard-response","61","73258","0.0-9.0-0.26","17kvsd","Thu Feb 18 2021 12:23:59 GMT+0100 (CET)","2021","2","18","12","23","59","hp99","21","female","right","75","61","50","4","4","","","","","fixation","","","",""
"636","img/image_stim_f_stroop.png","70","image-keyboard-response","62","73896","0.0-9.0-1.26","17kvsd","Thu Feb 18 2021 12:23:59 GMT+0100 (CET)","2021","2","18","12","23","59","hp99","21","female","right","75","61","50","4","4","","","","","test","fear","happy","f","true"
"null","<div style=""font-size:60px;"">+</div>","null","html-keyboard-response","63","75901","0.0-9.0-0.27","17kvsd","Thu Feb 18 2021 12:23:59 GMT+0100 (CET)","2021","2","18","12","23","59","hp99","21","female","right","75","61","50","4","4","","","","","fixation","","","",""
"805","img/image_stim_h_stroop.png","72","image-keyboard-response","64","76708","0.0-9.0-1.27","17kvsd","Thu Feb 18 2021 12:23:59 GMT+0100 (CET)","2021","2","18","12","23","59","hp99","21","female","right","75","61","50","4","4","","","","","test","happy","fear","h","true"
"null","<div style=""font-size:60px;"">+</div>","null","html-keyboard-response","65","78714","0.0-9.0-0.28","17kvsd","Thu Feb 18 2021 12:23:59 GMT+0100 (CET)","2021","2","18","12","23","59","hp99","21","female","right","75","61","50","4","4","","","","","fixation","","","",""
"481.00000000001455","img/image_stim_h.png","72","image-keyboard-response","66","79197","0.0-9.0-1.28","17kvsd","Thu Feb 18 2021 12:23:59 GMT+0100 (CET)","2021","2","18","12","23","59","hp99","21","female","right","75","61","50","4","4","","","","","test","happy","happy","h","true"
"null","<div style=""font-size:60px;"">+</div>","null","html-keyboard-response","67","79701","0.0-9.0-0.29","17kvsd","Thu Feb 18 2021 12:23:59 GMT+0100 (CET)","2021","2","18","12","23","59","hp99","21","female","right","75","61","50","4","4","","","","","fixation","","","",""
"576","img/image_stim_f.png","70","image-keyboard-response","68","80279","0.0-9.0-1.29","17kvsd","Thu Feb 18 2021 12:23:59 GMT+0100 (CET)","2021","2","18","12","23","59","hp99","21","female","right","75","61","50","4","4","","","","","test","fear","fear","f","true"
"null","<div style=""font-size:60px;"">+</div>","null","html-keyboard-response","69","80785","0.0-9.0-0.30","17kvsd","Thu Feb 18 2021 12:23:59 GMT+0100 (CET)","2021","2","18","12","23","59","hp99","21","female","right","75","61","50","4","4","","","","","fixation","","","",""
"534.9999999999854","img/image_stim_f_stroop.png","72","image-keyboard-response","70","81321","0.0-9.0-1.30","17kvsd","Thu Feb 18 2021 12:23:59 GMT+0100 (CET)","2021","2","18","12","23","59","hp99","21","female","right","75","61","50","4","4","","","","","test","fear","happy","f","false"
"null","<div style=""font-size:60px;"">+</div>","null","html-keyboard-response","71","81577","0.0-9.0-0.31","17kvsd","Thu Feb 18 2021 12:23:59 GMT+0100 (CET)","2021","2","18","12","23","59","hp99","21","female","right","75","61","50","4","4","","","","","fixation","","","",""
"727","img/image_stim_h_stroop.png","72","image-keyboard-response","72","82306","0.0-9.0-1.31","17kvsd","Thu Feb 18 2021 12:23:59 GMT+0100 (CET)","2021","2","18","12","23","59","hp99","21","female","right","75","61","50","4","4","","","","","test","happy","fear","h","true"
"null","<div style=""font-size:60px;"">+</div>","null","html-keyboard-response","73","83811","0.0-9.0-0.32","17kvsd","Thu Feb 18 2021 12:23:59 GMT+0100 (CET)","2021","2","18","12","23","59","hp99","21","female","right","75","61","50","4","4","","","","","fixation","","","",""
"1060.9999999999854","img/image_stim_h.png","72","image-keyboard-response","74","84874","0.0-9.0-1.32","17kvsd","Thu Feb 18 2021 12:23:59 GMT+0100 (CET)","2021","2","18","12","23","59","hp99","21","female","right","75","61","50","4","4","","","","","test","happy","happy","h","true"
"null","<div style=""font-size:60px;"">+</div>","null","html-keyboard-response","75","85129","0.0-9.0-0.33","17kvsd","Thu Feb 18 2021 12:23:59 GMT+0100 (CET)","2021","2","18","12","23","59","hp99","21","female","right","75","61","50","4","4","","","","","fixation","","","",""
"659","img/image_stim_f_stroop.png","70","image-keyboard-response","76","85791","0.0-9.0-1.33","17kvsd","Thu Feb 18 2021 12:23:59 GMT+0100 (CET)","2021","2","18","12","23","59","hp99","21","female","right","75","61","50","4","4","","","","","test","fear","happy","f","true"
"null","<div style=""font-size:60px;"">+</div>","null","html-keyboard-response","77","87796","0.0-9.0-0.34","17kvsd","Thu Feb 18 2021 12:23:59 GMT+0100 (CET)","2021","2","18","12","23","59","hp99","21","female","right","75","61","50","4","4","","","","","fixation","","","",""
"667.9999999999854","img/image_stim_f.png","70","image-keyboard-response","78","88466","0.0-9.0-1.34","17kvsd","Thu Feb 18 2021 12:23:59 GMT+0100 (CET)","2021","2","18","12","23","59","hp99","21","female","right","75","61","50","4","4","","","","","test","fear","fear","f","true"
"null","<div style=""font-size:60px;"">+</div>","null","html-keyboard-response","79","88972","0.0-9.0-0.35","17kvsd","Thu Feb 18 2021 12:23:59 GMT+0100 (CET)","2021","2","18","12","23","59","hp99","21","female","right","75","61","50","4","4","","","","","fixation","","","",""
"925","img/image_stim_h_stroop.png","72","image-keyboard-response","80","89899","0.0-9.0-1.35","17kvsd","Thu Feb 18 2021 12:23:59 GMT+0100 (CET)","2021","2","18","12","23","59","hp99","21","female","right","75","61","50","4","4","","","","","test","happy","fear","h","true"
