"rt","stimulus","key_press","trial_type","trial_index","time_elapsed","internal_node_id","exp_id","Time","year","month","date","hour","minute","seconds","id","age","Gender","Handedness","mood","fresh","hunger","H_since_Sleep","H_since_Eat","responses","question_order","slider_start","response","test_part","face","word","correct_response","correct"
"129621691","<p>Welcome to this experiment on daily rhythms and cognition.</p><p>First you will be asked some questions about yourself.</p><p>Then a short experiment will measure your response time.</p><p>Take the test at different times of the day/night.</p><p>The test is anonymous, but comparing your data across time is important.</p><p>Therefore, please make up and remember a personal ID (two letters+ two numbers).</p><p>Use this ID whenever taking the test.</p><p><strong>Press any key to begin.</strong></p>","32","html-keyboard-response","0","252339216","0.0-0.0","sdz8ke","Tue Feb 16 2021 11:12:53 GMT+0100 (CET)","2021","2","16","11","12","53","AM07","31","female","right","89","87","14","1","12","","","","","","","","",""
"8271","","","survey-text","1","252349291","0.0-1.0","sdz8ke","Tue Feb 16 2021 11:12:53 GMT+0100 (CET)","2021","2","16","11","12","53","AM07","31","female","right","89","87","14","1","12","{""Q0"":""AM07""}","","","","","","","",""
"2111.999999985099","","","survey-text","2","252351422","0.0-2.0","sdz8ke","Tue Feb 16 2021 11:12:53 GMT+0100 (CET)","2021","2","16","11","12","53","AM07","31","female","right","89","87","14","1","12","{""Q0"":""31""}","","","","","","","",""
"4282","","","survey-multi-select","3","252355749","0.0-3.0","sdz8ke","Tue Feb 16 2021 11:12:53 GMT+0100 (CET)","2021","2","16","11","12","53","AM07","31","female","right","89","87","14","1","12","{""Gender"":[""female""],""Hand"":[""right""]}","[0,1]","","","","","","",""
"5807","<p>How Sad/Angry or Happy are you right now?</p>","","html-slider-response","4","252361578","0.0-4.0","sdz8ke","Tue Feb 16 2021 11:12:53 GMT+0100 (CET)","2021","2","16","11","12","53","AM07","31","female","right","89","87","14","1","12","","","50","89","","","","",""
"3902.999999985099","<p>How Tired/Sleepy/Distracted or Fresh/Awake/Alert are you right now?</p>","","html-slider-response","5","252365485","0.0-5.0","sdz8ke","Tue Feb 16 2021 11:12:53 GMT+0100 (CET)","2021","2","16","11","12","53","AM07","31","female","right","89","87","14","1","12","","","50","87","","","","",""
"4120","<p>How Hungry or Satiated are you right now?</p>","","html-slider-response","6","252369609","0.0-6.0","sdz8ke","Tue Feb 16 2021 11:12:53 GMT+0100 (CET)","2021","2","16","11","12","53","AM07","31","female","right","89","87","14","1","12","","","50","14","","","","",""
"18977","","","survey-multi-select","7","252388645","0.0-7.0","sdz8ke","Tue Feb 16 2021 11:12:53 GMT+0100 (CET)","2021","2","16","11","12","53","AM07","31","female","right","89","87","14","1","12","{""Sleep"":[""1""],""Eat"":[""12""]}","[0,1]","","","","","","",""
"15719.999999985099","<p>In this experiment, a face and a word will appear in the center of the screen.</p><p>If the face is <strong>happy</strong>, press the letter <strong>H</strong> with <strong>right</strong> index finger.</p><p>If the face is <strong>fearful</strong>, press the letter <strong>F</strong> with <strong>left</strong> index finger.</p><p><strong>Ignore the written words</strong>. Respond as fast as possible while being correct. </p><div style='width: 900px;'><div style='float: left;'><img src='img/stimuli_stroop_happy.png'></img><p class='small'><strong>Press the H key for happy faces</strong></p></div><div class='float: right;'><img src='img/stimuli_stroop_fear.png'></img><p class='small'><strong>Press the F key for faces with fear</strong></p></div></div><p>If the screen turns blank, press <strong>SPACE</strong></p><p><strong>Press any key to begin.</strong></p>","85","html-keyboard-response","8","252404413","0.0-8.0","sdz8ke","Tue Feb 16 2021 11:12:53 GMT+0100 (CET)","2021","2","16","11","12","53","AM07","31","female","right","89","87","14","1","12","","","","","","","","",""
"null","<div style=""font-size:60px;"">+</div>","null","html-keyboard-response","9","252406697","0.0-9.0-0.0","sdz8ke","Tue Feb 16 2021 11:12:53 GMT+0100 (CET)","2021","2","16","11","12","53","AM07","31","female","right","89","87","14","1","12","","","","","fixation","","","",""
"null","img/image_stim_h_stroop.png","null","image-keyboard-response","10","252411765","0.0-9.0-1.0","sdz8ke","Tue Feb 16 2021 11:12:53 GMT+0100 (CET)","2021","2","16","11","12","53","AM07","31","female","right","89","87","14","1","12","","","","","test","happy","fear","h","false"
"null","<div style=""font-size:60px;"">+</div>","null","html-keyboard-response","11","252412848","0.0-9.0-0.1","sdz8ke","Tue Feb 16 2021 11:12:53 GMT+0100 (CET)","2021","2","16","11","12","53","AM07","31","female","right","89","87","14","1","12","","","","","fixation","","","",""
"null","img/image_stim_h.png","null","image-keyboard-response","12","252417850","0.0-9.0-1.1","sdz8ke","Tue Feb 16 2021 11:12:53 GMT+0100 (CET)","2021","2","16","11","12","53","AM07","31","female","right","89","87","14","1","12","","","","","test","happy","happy","h","false"
"null","<div style=""font-size:60px;"">+</div>","null","html-keyboard-response","13","252419861","0.0-9.0-0.2","sdz8ke","Tue Feb 16 2021 11:12:53 GMT+0100 (CET)","2021","2","16","11","12","53","AM07","31","female","right","89","87","14","1","12","","","","","fixation","","","",""
"4733","img/image_stim_f.png","32","image-keyboard-response","14","252424607","0.0-9.0-1.2","sdz8ke","Tue Feb 16 2021 11:12:53 GMT+0100 (CET)","2021","2","16","11","12","53","AM07","31","female","right","89","87","14","1","12","","","","","test","fear","fear","f","false"
"null","<div style=""font-size:60px;"">+</div>","null","html-keyboard-response","15","252426368","0.0-9.0-0.3","sdz8ke","Tue Feb 16 2021 11:12:53 GMT+0100 (CET)","2021","2","16","11","12","53","AM07","31","female","right","89","87","14","1","12","","","","","fixation","","","",""
"528","img/image_stim_f_stroop.png","32","image-keyboard-response","16","252426905","0.0-9.0-1.3","sdz8ke","Tue Feb 16 2021 11:12:53 GMT+0100 (CET)","2021","2","16","11","12","53","AM07","31","female","right","89","87","14","1","12","","","","","test","fear","happy","f","false"
"null","<div style=""font-size:60px;"">+</div>","null","html-keyboard-response","17","252427409","0.0-9.0-0.4","sdz8ke","Tue Feb 16 2021 11:12:53 GMT+0100 (CET)","2021","2","16","11","12","53","AM07","31","female","right","89","87","14","1","12","","","","","fixation","","","",""
"0","img/image_stim_f_stroop.png","32","image-keyboard-response","18","252427427","0.0-9.0-1.4","sdz8ke","Tue Feb 16 2021 11:12:53 GMT+0100 (CET)","2021","2","16","11","12","53","AM07","31","female","right","89","87","14","1","12","","","","","test","fear","happy","f","false"
"null","<div style=""font-size:60px;"">+</div>","null","html-keyboard-response","19","252429181","0.0-9.0-0.5","sdz8ke","Tue Feb 16 2021 11:12:53 GMT+0100 (CET)","2021","2","16","11","12","53","AM07","31","female","right","89","87","14","1","12","","","","","fixation","","","",""
"1877.0000000149012","img/image_stim_h_stroop.png","70","image-keyboard-response","20","252431067","0.0-9.0-1.5","sdz8ke","Tue Feb 16 2021 11:12:53 GMT+0100 (CET)","2021","2","16","11","12","53","AM07","31","female","right","89","87","14","1","12","","","","","test","happy","fear","h","false"
"null","<div style=""font-size:60px;"">+</div>","null","html-keyboard-response","21","252431821","0.0-9.0-0.6","sdz8ke","Tue Feb 16 2021 11:12:53 GMT+0100 (CET)","2021","2","16","11","12","53","AM07","31","female","right","89","87","14","1","12","","","","","fixation","","","",""
"1004","img/image_stim_f.png","70","image-keyboard-response","22","252432835","0.0-9.0-1.6","sdz8ke","Tue Feb 16 2021 11:12:53 GMT+0100 (CET)","2021","2","16","11","12","53","AM07","31","female","right","89","87","14","1","12","","","","","test","fear","fear","f","true"
"null","<div style=""font-size:60px;"">+</div>","null","html-keyboard-response","23","252434338","0.0-9.0-0.7","sdz8ke","Tue Feb 16 2021 11:12:53 GMT+0100 (CET)","2021","2","16","11","12","53","AM07","31","female","right","89","87","14","1","12","","","","","fixation","","","",""
"584","img/image_stim_h.png","72","image-keyboard-response","24","252434927","0.0-9.0-1.7","sdz8ke","Tue Feb 16 2021 11:12:53 GMT+0100 (CET)","2021","2","16","11","12","53","AM07","31","female","right","89","87","14","1","12","","","","","test","happy","happy","h","true"
"null","<div style=""font-size:60px;"">+</div>","null","html-keyboard-response","25","252435183","0.0-9.0-0.8","sdz8ke","Tue Feb 16 2021 11:12:53 GMT+0100 (CET)","2021","2","16","11","12","53","AM07","31","female","right","89","87","14","1","12","","","","","fixation","","","",""
"870","img/image_stim_h_stroop.png","72","image-keyboard-response","26","252436058","0.0-9.0-1.8","sdz8ke","Tue Feb 16 2021 11:12:53 GMT+0100 (CET)","2021","2","16","11","12","53","AM07","31","female","right","89","87","14","1","12","","","","","test","happy","fear","h","true"
"null","<div style=""font-size:60px;"">+</div>","null","html-keyboard-response","27","252437576","0.0-9.0-0.9","sdz8ke","Tue Feb 16 2021 11:12:53 GMT+0100 (CET)","2021","2","16","11","12","53","AM07","31","female","right","89","87","14","1","12","","","","","fixation","","","",""
"1553","img/image_stim_f.png","70","image-keyboard-response","28","252439142","0.0-9.0-1.9","sdz8ke","Tue Feb 16 2021 11:12:53 GMT+0100 (CET)","2021","2","16","11","12","53","AM07","31","female","right","89","87","14","1","12","","","","","test","fear","fear","f","true"
"null","<div style=""font-size:60px;"">+</div>","null","html-keyboard-response","29","252439896","0.0-9.0-0.10","sdz8ke","Tue Feb 16 2021 11:12:53 GMT+0100 (CET)","2021","2","16","11","12","53","AM07","31","female","right","89","87","14","1","12","","","","","fixation","","","",""
"543","img/image_stim_h.png","72","image-keyboard-response","30","252440443","0.0-9.0-1.10","sdz8ke","Tue Feb 16 2021 11:12:53 GMT+0100 (CET)","2021","2","16","11","12","53","AM07","31","female","right","89","87","14","1","12","","","","","test","happy","happy","h","true"
"null","<div style=""font-size:60px;"">+</div>","null","html-keyboard-response","31","252441716","0.0-9.0-0.11","sdz8ke","Tue Feb 16 2021 11:12:53 GMT+0100 (CET)","2021","2","16","11","12","53","AM07","31","female","right","89","87","14","1","12","","","","","fixation","","","",""
"746","img/image_stim_f_stroop.png","70","image-keyboard-response","32","252442467","0.0-9.0-1.11","sdz8ke","Tue Feb 16 2021 11:12:53 GMT+0100 (CET)","2021","2","16","11","12","53","AM07","31","female","right","89","87","14","1","12","","","","","test","fear","happy","f","true"
"null","<div style=""font-size:60px;"">+</div>","null","html-keyboard-response","33","252442723","0.0-9.0-0.12","sdz8ke","Tue Feb 16 2021 11:12:53 GMT+0100 (CET)","2021","2","16","11","12","53","AM07","31","female","right","89","87","14","1","12","","","","","fixation","","","",""
"673.0000000149012","img/image_stim_h_stroop.png","72","image-keyboard-response","34","252443401","0.0-9.0-1.12","sdz8ke","Tue Feb 16 2021 11:12:53 GMT+0100 (CET)","2021","2","16","11","12","53","AM07","31","female","right","89","87","14","1","12","","","","","test","happy","fear","h","true"
"null","<div style=""font-size:60px;"">+</div>","null","html-keyboard-response","35","252445406","0.0-9.0-0.13","sdz8ke","Tue Feb 16 2021 11:12:53 GMT+0100 (CET)","2021","2","16","11","12","53","AM07","31","female","right","89","87","14","1","12","","","","","fixation","","","",""
"795","img/image_stim_f_stroop.png","72","image-keyboard-response","36","252446205","0.0-9.0-1.13","sdz8ke","Tue Feb 16 2021 11:12:53 GMT+0100 (CET)","2021","2","16","11","12","53","AM07","31","female","right","89","87","14","1","12","","","","","test","fear","happy","f","false"
"null","<div style=""font-size:60px;"">+</div>","null","html-keyboard-response","37","252446464","0.0-9.0-0.14","sdz8ke","Tue Feb 16 2021 11:12:53 GMT+0100 (CET)","2021","2","16","11","12","53","AM07","31","female","right","89","87","14","1","12","","","","","fixation","","","",""
"805.9999999850988","img/image_stim_f.png","70","image-keyboard-response","38","252447275","0.0-9.0-1.14","sdz8ke","Tue Feb 16 2021 11:12:53 GMT+0100 (CET)","2021","2","16","11","12","53","AM07","31","female","right","89","87","14","1","12","","","","","test","fear","fear","f","true"
"null","<div style=""font-size:60px;"">+</div>","null","html-keyboard-response","39","252448032","0.0-9.0-0.15","sdz8ke","Tue Feb 16 2021 11:12:53 GMT+0100 (CET)","2021","2","16","11","12","53","AM07","31","female","right","89","87","14","1","12","","","","","fixation","","","",""
"508.99999998509884","img/image_stim_h.png","72","image-keyboard-response","40","252448546","0.0-9.0-1.15","sdz8ke","Tue Feb 16 2021 11:12:53 GMT+0100 (CET)","2021","2","16","11","12","53","AM07","31","female","right","89","87","14","1","12","","","","","test","happy","happy","h","true"
"null","<div style=""font-size:60px;"">+</div>","null","html-keyboard-response","41","252449555","0.0-9.0-0.16","sdz8ke","Tue Feb 16 2021 11:12:53 GMT+0100 (CET)","2021","2","16","11","12","53","AM07","31","female","right","89","87","14","1","12","","","","","fixation","","","",""
"656.9999999850988","img/image_stim_h_stroop.png","70","image-keyboard-response","42","252450217","0.0-9.0-1.16","sdz8ke","Tue Feb 16 2021 11:12:53 GMT+0100 (CET)","2021","2","16","11","12","53","AM07","31","female","right","89","87","14","1","12","","","","","test","happy","fear","h","false"
"null","<div style=""font-size:60px;"">+</div>","null","html-keyboard-response","43","252450976","0.0-9.0-0.17","sdz8ke","Tue Feb 16 2021 11:12:53 GMT+0100 (CET)","2021","2","16","11","12","53","AM07","31","female","right","89","87","14","1","12","","","","","fixation","","","",""
"700","img/image_stim_f.png","70","image-keyboard-response","44","252451681","0.0-9.0-1.17","sdz8ke","Tue Feb 16 2021 11:12:53 GMT+0100 (CET)","2021","2","16","11","12","53","AM07","31","female","right","89","87","14","1","12","","","","","test","fear","fear","f","true"
"null","<div style=""font-size:60px;"">+</div>","null","html-keyboard-response","45","252453689","0.0-9.0-0.18","sdz8ke","Tue Feb 16 2021 11:12:53 GMT+0100 (CET)","2021","2","16","11","12","53","AM07","31","female","right","89","87","14","1","12","","","","","fixation","","","",""
"803","img/image_stim_h.png","72","image-keyboard-response","46","252454497","0.0-9.0-1.18","sdz8ke","Tue Feb 16 2021 11:12:53 GMT+0100 (CET)","2021","2","16","11","12","53","AM07","31","female","right","89","87","14","1","12","","","","","test","happy","happy","h","true"
"null","<div style=""font-size:60px;"">+</div>","null","html-keyboard-response","47","252456005","0.0-9.0-0.19","sdz8ke","Tue Feb 16 2021 11:12:53 GMT+0100 (CET)","2021","2","16","11","12","53","AM07","31","female","right","89","87","14","1","12","","","","","fixation","","","",""
"611","img/image_stim_f_stroop.png","70","image-keyboard-response","48","252456623","0.0-9.0-1.19","sdz8ke","Tue Feb 16 2021 11:12:53 GMT+0100 (CET)","2021","2","16","11","12","53","AM07","31","female","right","89","87","14","1","12","","","","","test","fear","happy","f","true"
"null","<div style=""font-size:60px;"">+</div>","null","html-keyboard-response","49","252457630","0.0-9.0-0.20","sdz8ke","Tue Feb 16 2021 11:12:53 GMT+0100 (CET)","2021","2","16","11","12","53","AM07","31","female","right","89","87","14","1","12","","","","","fixation","","","",""
"527.0000000149012","img/image_stim_h.png","72","image-keyboard-response","50","252458162","0.0-9.0-1.20","sdz8ke","Tue Feb 16 2021 11:12:53 GMT+0100 (CET)","2021","2","16","11","12","53","AM07","31","female","right","89","87","14","1","12","","","","","test","happy","happy","h","true"
"null","<div style=""font-size:60px;"">+</div>","null","html-keyboard-response","51","252458672","0.0-9.0-0.21","sdz8ke","Tue Feb 16 2021 11:12:53 GMT+0100 (CET)","2021","2","16","11","12","53","AM07","31","female","right","89","87","14","1","12","","","","","fixation","","","",""
"569","img/image_stim_f.png","70","image-keyboard-response","52","252459246","0.0-9.0-1.21","sdz8ke","Tue Feb 16 2021 11:12:53 GMT+0100 (CET)","2021","2","16","11","12","53","AM07","31","female","right","89","87","14","1","12","","","","","test","fear","fear","f","true"
"null","<div style=""font-size:60px;"">+</div>","null","html-keyboard-response","53","252460507","0.0-9.0-0.22","sdz8ke","Tue Feb 16 2021 11:12:53 GMT+0100 (CET)","2021","2","16","11","12","53","AM07","31","female","right","89","87","14","1","12","","","","","fixation","","","",""
"503","img/image_stim_f_stroop.png","72","image-keyboard-response","54","252461016","0.0-9.0-1.22","sdz8ke","Tue Feb 16 2021 11:12:53 GMT+0100 (CET)","2021","2","16","11","12","53","AM07","31","female","right","89","87","14","1","12","","","","","test","fear","happy","f","false"
"null","<div style=""font-size:60px;"">+</div>","null","html-keyboard-response","55","252462776","0.0-9.0-0.23","sdz8ke","Tue Feb 16 2021 11:12:53 GMT+0100 (CET)","2021","2","16","11","12","53","AM07","31","female","right","89","87","14","1","12","","","","","fixation","","","",""
"535","img/image_stim_h_stroop.png","72","image-keyboard-response","56","252463315","0.0-9.0-1.23","sdz8ke","Tue Feb 16 2021 11:12:53 GMT+0100 (CET)","2021","2","16","11","12","53","AM07","31","female","right","89","87","14","1","12","","","","","test","happy","fear","h","true"
"null","<div style=""font-size:60px;"">+</div>","null","html-keyboard-response","57","252464073","0.0-9.0-0.24","sdz8ke","Tue Feb 16 2021 11:12:53 GMT+0100 (CET)","2021","2","16","11","12","53","AM07","31","female","right","89","87","14","1","12","","","","","fixation","","","",""
"793","img/image_stim_h_stroop.png","72","image-keyboard-response","58","252464870","0.0-9.0-1.24","sdz8ke","Tue Feb 16 2021 11:12:53 GMT+0100 (CET)","2021","2","16","11","12","53","AM07","31","female","right","89","87","14","1","12","","","","","test","happy","fear","h","true"
"null","<div style=""font-size:60px;"">+</div>","null","html-keyboard-response","59","252465125","0.0-9.0-0.25","sdz8ke","Tue Feb 16 2021 11:12:53 GMT+0100 (CET)","2021","2","16","11","12","53","AM07","31","female","right","89","87","14","1","12","","","","","fixation","","","",""
"593.9999999850988","img/image_stim_f_stroop.png","70","image-keyboard-response","60","252465721","0.0-9.0-1.25","sdz8ke","Tue Feb 16 2021 11:12:53 GMT+0100 (CET)","2021","2","16","11","12","53","AM07","31","female","right","89","87","14","1","12","","","","","test","fear","happy","f","true"
"null","<div style=""font-size:60px;"">+</div>","null","html-keyboard-response","61","252466976","0.0-9.0-0.26","sdz8ke","Tue Feb 16 2021 11:12:53 GMT+0100 (CET)","2021","2","16","11","12","53","AM07","31","female","right","89","87","14","1","12","","","","","fixation","","","",""
"494","img/image_stim_f.png","70","image-keyboard-response","62","252467475","0.0-9.0-1.26","sdz8ke","Tue Feb 16 2021 11:12:53 GMT+0100 (CET)","2021","2","16","11","12","53","AM07","31","female","right","89","87","14","1","12","","","","","test","fear","fear","f","true"
"null","<div style=""font-size:60px;"">+</div>","null","html-keyboard-response","63","252467728","0.0-9.0-0.27","sdz8ke","Tue Feb 16 2021 11:12:53 GMT+0100 (CET)","2021","2","16","11","12","53","AM07","31","female","right","89","87","14","1","12","","","","","fixation","","","",""
"547.9999999850988","img/image_stim_h.png","72","image-keyboard-response","64","252468282","0.0-9.0-1.27","sdz8ke","Tue Feb 16 2021 11:12:53 GMT+0100 (CET)","2021","2","16","11","12","53","AM07","31","female","right","89","87","14","1","12","","","","","test","happy","happy","h","true"
"null","<div style=""font-size:60px;"">+</div>","null","html-keyboard-response","65","252468538","0.0-9.0-0.28","sdz8ke","Tue Feb 16 2021 11:12:53 GMT+0100 (CET)","2021","2","16","11","12","53","AM07","31","female","right","89","87","14","1","12","","","","","fixation","","","",""
"552","img/image_stim_f.png","70","image-keyboard-response","66","252469094","0.0-9.0-1.28","sdz8ke","Tue Feb 16 2021 11:12:53 GMT+0100 (CET)","2021","2","16","11","12","53","AM07","31","female","right","89","87","14","1","12","","","","","test","fear","fear","f","true"
"null","<div style=""font-size:60px;"">+</div>","null","html-keyboard-response","67","252469602","0.0-9.0-0.29","sdz8ke","Tue Feb 16 2021 11:12:53 GMT+0100 (CET)","2021","2","16","11","12","53","AM07","31","female","right","89","87","14","1","12","","","","","fixation","","","",""
"572","img/image_stim_h_stroop.png","72","image-keyboard-response","68","252470180","0.0-9.0-1.29","sdz8ke","Tue Feb 16 2021 11:12:53 GMT+0100 (CET)","2021","2","16","11","12","53","AM07","31","female","right","89","87","14","1","12","","","","","test","happy","fear","h","true"
"null","<div style=""font-size:60px;"">+</div>","null","html-keyboard-response","69","252471686","0.0-9.0-0.30","sdz8ke","Tue Feb 16 2021 11:12:53 GMT+0100 (CET)","2021","2","16","11","12","53","AM07","31","female","right","89","87","14","1","12","","","","","fixation","","","",""
"664","img/image_stim_f_stroop.png","70","image-keyboard-response","70","252472355","0.0-9.0-1.30","sdz8ke","Tue Feb 16 2021 11:12:53 GMT+0100 (CET)","2021","2","16","11","12","53","AM07","31","female","right","89","87","14","1","12","","","","","test","fear","happy","f","true"
"null","<div style=""font-size:60px;"">+</div>","null","html-keyboard-response","71","252472611","0.0-9.0-0.31","sdz8ke","Tue Feb 16 2021 11:12:53 GMT+0100 (CET)","2021","2","16","11","12","53","AM07","31","female","right","89","87","14","1","12","","","","","fixation","","","",""
"521.9999999850988","img/image_stim_h.png","72","image-keyboard-response","72","252473138","0.0-9.0-1.31","sdz8ke","Tue Feb 16 2021 11:12:53 GMT+0100 (CET)","2021","2","16","11","12","53","AM07","31","female","right","89","87","14","1","12","","","","","test","happy","happy","h","true"
"null","<div style=""font-size:60px;"">+</div>","null","html-keyboard-response","73","252473894","0.0-9.0-0.32","sdz8ke","Tue Feb 16 2021 11:12:53 GMT+0100 (CET)","2021","2","16","11","12","53","AM07","31","female","right","89","87","14","1","12","","","","","fixation","","","",""
"611.0000000149012","img/image_stim_f.png","70","image-keyboard-response","74","252474510","0.0-9.0-1.32","sdz8ke","Tue Feb 16 2021 11:12:53 GMT+0100 (CET)","2021","2","16","11","12","53","AM07","31","female","right","89","87","14","1","12","","","","","test","fear","fear","f","true"
"null","<div style=""font-size:60px;"">+</div>","null","html-keyboard-response","75","252475016","0.0-9.0-0.33","sdz8ke","Tue Feb 16 2021 11:12:53 GMT+0100 (CET)","2021","2","16","11","12","53","AM07","31","female","right","89","87","14","1","12","","","","","fixation","","","",""
"641.9999999850988","img/image_stim_f_stroop.png","70","image-keyboard-response","76","252475663","0.0-9.0-1.33","sdz8ke","Tue Feb 16 2021 11:12:53 GMT+0100 (CET)","2021","2","16","11","12","53","AM07","31","female","right","89","87","14","1","12","","","","","test","fear","happy","f","true"
"null","<div style=""font-size:60px;"">+</div>","null","html-keyboard-response","77","252476918","0.0-9.0-0.34","sdz8ke","Tue Feb 16 2021 11:12:53 GMT+0100 (CET)","2021","2","16","11","12","53","AM07","31","female","right","89","87","14","1","12","","","","","fixation","","","",""
"558","img/image_stim_h.png","72","image-keyboard-response","78","252477481","0.0-9.0-1.34","sdz8ke","Tue Feb 16 2021 11:12:53 GMT+0100 (CET)","2021","2","16","11","12","53","AM07","31","female","right","89","87","14","1","12","","","","","test","happy","happy","h","true"
"null","<div style=""font-size:60px;"">+</div>","null","html-keyboard-response","79","252477736","0.0-9.0-0.35","sdz8ke","Tue Feb 16 2021 11:12:53 GMT+0100 (CET)","2021","2","16","11","12","53","AM07","31","female","right","89","87","14","1","12","","","","","fixation","","","",""
"798","img/image_stim_h_stroop.png","72","image-keyboard-response","80","252478538","0.0-9.0-1.35","sdz8ke","Tue Feb 16 2021 11:12:53 GMT+0100 (CET)","2021","2","16","11","12","53","AM07","31","female","right","89","87","14","1","12","","","","","test","happy","fear","h","true"
