"rt","stimulus","key_press","trial_type","trial_index","time_elapsed","internal_node_id","exp_id","Time","year","month","date","hour","minute","seconds","id","age","Gender","Handedness","mood","fresh","hunger","H_since_Sleep","H_since_Eat","responses","question_order","slider_start","response","test_part","face","word","correct_response","correct"
"3414","<p>Welcome to this experiment on daily rhythms and cognition.</p><p>First you will be asked some questions about yourself.</p><p>Then a short experiment will measure your response time.</p><p>Take the test at different times of the day/night.</p><p>The test is anonymous, but comparing your data across time is important.</p><p>Therefore, please make up and remember a personal ID (two letters+ two numbers).</p><p>Use this ID whenever taking the test.</p><p><strong>Press any key to begin.</strong></p>","32","html-keyboard-response","0","3416","0.0-0.0","mu2rx4","Wed Feb 16 2022 08:34:43 GMT+0100 (CET)","2022","2","16","8","34","43","mw73","48","male","right","50","90","93","1","0","","","","","","","","",""
"6576","","","survey-text","1","10026","0.0-1.0","mu2rx4","Wed Feb 16 2022 08:34:43 GMT+0100 (CET)","2022","2","16","8","34","43","mw73","48","male","right","50","90","93","1","0","{""Q0"":""mw73""}","","","","","","","",""
"122908","","","survey-text","2","132943","0.0-2.0","mu2rx4","Wed Feb 16 2022 08:34:43 GMT+0100 (CET)","2022","2","16","8","34","43","mw73","48","male","right","50","90","93","1","0","{""Q0"":""48""}","","","","","","","",""
"4899","","","survey-multi-select","3","137847","0.0-3.0","mu2rx4","Wed Feb 16 2022 08:34:43 GMT+0100 (CET)","2022","2","16","8","34","43","mw73","48","male","right","50","90","93","1","0","{""Gender"":[""male""],""Hand"":[""right""]}","[0,1]","","","","","","",""
"9317.00000000003","<p>How Sad/Angry or Happy are you right now?</p>","","html-slider-response","4","147167","0.0-4.0","mu2rx4","Wed Feb 16 2022 08:34:43 GMT+0100 (CET)","2022","2","16","8","34","43","mw73","48","male","right","50","90","93","1","0","","","50","50","","","","",""
"5342","<p>How Tired/Sleepy/Distracted or Fresh/Awake/Alert are you right now?</p>","","html-slider-response","5","152509","0.0-5.0","mu2rx4","Wed Feb 16 2022 08:34:43 GMT+0100 (CET)","2022","2","16","8","34","43","mw73","48","male","right","50","90","93","1","0","","","50","90","","","","",""
"6126","<p>How Hungry or Satiated are you right now?</p>","","html-slider-response","6","158635","0.0-6.0","mu2rx4","Wed Feb 16 2022 08:34:43 GMT+0100 (CET)","2022","2","16","8","34","43","mw73","48","male","right","50","90","93","1","0","","","50","93","","","","",""
"16777","","","survey-multi-select","7","175423","0.0-7.0","mu2rx4","Wed Feb 16 2022 08:34:43 GMT+0100 (CET)","2022","2","16","8","34","43","mw73","48","male","right","50","90","93","1","0","{""Sleep"":[""1""],""Eat"":[""0""]}","[0,1]","","","","","","",""
"7734","<p>In this experiment, a face and a word will appear in the center of the screen.</p><p>If the face is <strong>happy</strong>, press the letter <strong>H</strong> with <strong>right</strong> index finger.</p><p>If the face is <strong>fearful</strong>, press the letter <strong>F</strong> with <strong>left</strong> index finger.</p><p><strong>Ignore the written words</strong>. Respond as fast as possible while being correct. </p><div style='width: 900px;'><div style='float: left;'><img src='img/stimuli_stroop_happy.png'></img><p class='small'><strong>Press the H key for happy faces</strong></p></div><div class='float: right;'><img src='img/stimuli_stroop_fear.png'></img><p class='small'><strong>Press the F key for faces with fear</strong></p></div></div><p>If the screen turns blank, press <strong>SPACE</strong></p><p><strong>Press any key to begin.</strong></p>","32","html-keyboard-response","8","183158","0.0-8.0","mu2rx4","Wed Feb 16 2022 08:34:43 GMT+0100 (CET)","2022","2","16","8","34","43","mw73","48","male","right","50","90","93","1","0","","","","","","","","",""
"null","<div style=""font-size:60px;"">+</div>","null","html-keyboard-response","9","186910","0.0-9.0-0.0","mu2rx4","Wed Feb 16 2022 08:34:43 GMT+0100 (CET)","2022","2","16","8","34","43","mw73","48","male","right","50","90","93","1","0","","","","","fixation","","","",""
"843","img/image_stim_f.png","70","image-keyboard-response","10","187759","0.0-9.0-1.0","mu2rx4","Wed Feb 16 2022 08:34:43 GMT+0100 (CET)","2022","2","16","8","34","43","mw73","48","male","right","50","90","93","1","0","","","","","test","fear","fear","f","true"
"null","<div style=""font-size:60px;"">+</div>","null","html-keyboard-response","11","188763","0.0-9.0-0.1","mu2rx4","Wed Feb 16 2022 08:34:43 GMT+0100 (CET)","2022","2","16","8","34","43","mw73","48","male","right","50","90","93","1","0","","","","","fixation","","","",""
"738","img/image_stim_f_stroop.png","70","image-keyboard-response","12","189505","0.0-9.0-1.1","mu2rx4","Wed Feb 16 2022 08:34:43 GMT+0100 (CET)","2022","2","16","8","34","43","mw73","48","male","right","50","90","93","1","0","","","","","test","fear","happy","f","true"
"null","<div style=""font-size:60px;"">+</div>","null","html-keyboard-response","13","191258","0.0-9.0-0.2","mu2rx4","Wed Feb 16 2022 08:34:43 GMT+0100 (CET)","2022","2","16","8","34","43","mw73","48","male","right","50","90","93","1","0","","","","","fixation","","","",""
"610","img/image_stim_h_stroop.png","72","image-keyboard-response","14","191872","0.0-9.0-1.2","mu2rx4","Wed Feb 16 2022 08:34:43 GMT+0100 (CET)","2022","2","16","8","34","43","mw73","48","male","right","50","90","93","1","0","","","","","test","happy","fear","h","true"
"null","<div style=""font-size:60px;"">+</div>","null","html-keyboard-response","15","192874","0.0-9.0-0.3","mu2rx4","Wed Feb 16 2022 08:34:43 GMT+0100 (CET)","2022","2","16","8","34","43","mw73","48","male","right","50","90","93","1","0","","","","","fixation","","","",""
"637.9999999999709","img/image_stim_h.png","72","image-keyboard-response","16","193514","0.0-9.0-1.3","mu2rx4","Wed Feb 16 2022 08:34:43 GMT+0100 (CET)","2022","2","16","8","34","43","mw73","48","male","right","50","90","93","1","0","","","","","test","happy","happy","h","true"
"null","<div style=""font-size:60px;"">+</div>","null","html-keyboard-response","17","194516","0.0-9.0-0.4","mu2rx4","Wed Feb 16 2022 08:34:43 GMT+0100 (CET)","2022","2","16","8","34","43","mw73","48","male","right","50","90","93","1","0","","","","","fixation","","","",""
"467","img/image_stim_h.png","72","image-keyboard-response","18","194984","0.0-9.0-1.4","mu2rx4","Wed Feb 16 2022 08:34:43 GMT+0100 (CET)","2022","2","16","8","34","43","mw73","48","male","right","50","90","93","1","0","","","","","test","happy","happy","h","true"
"null","<div style=""font-size:60px;"">+</div>","null","html-keyboard-response","19","195237","0.0-9.0-0.5","mu2rx4","Wed Feb 16 2022 08:34:43 GMT+0100 (CET)","2022","2","16","8","34","43","mw73","48","male","right","50","90","93","1","0","","","","","fixation","","","",""
"587","img/image_stim_h_stroop.png","72","image-keyboard-response","20","195825","0.0-9.0-1.5","mu2rx4","Wed Feb 16 2022 08:34:43 GMT+0100 (CET)","2022","2","16","8","34","43","mw73","48","male","right","50","90","93","1","0","","","","","test","happy","fear","h","true"
"null","<div style=""font-size:60px;"">+</div>","null","html-keyboard-response","21","196826","0.0-9.0-0.6","mu2rx4","Wed Feb 16 2022 08:34:43 GMT+0100 (CET)","2022","2","16","8","34","43","mw73","48","male","right","50","90","93","1","0","","","","","fixation","","","",""
"535","img/image_stim_f_stroop.png","70","image-keyboard-response","22","197361","0.0-9.0-1.6","mu2rx4","Wed Feb 16 2022 08:34:43 GMT+0100 (CET)","2022","2","16","8","34","43","mw73","48","male","right","50","90","93","1","0","","","","","test","fear","happy","f","true"
"null","<div style=""font-size:60px;"">+</div>","null","html-keyboard-response","23","198114","0.0-9.0-0.7","mu2rx4","Wed Feb 16 2022 08:34:43 GMT+0100 (CET)","2022","2","16","8","34","43","mw73","48","male","right","50","90","93","1","0","","","","","fixation","","","",""
"618","img/image_stim_f.png","70","image-keyboard-response","24","198733","0.0-9.0-1.7","mu2rx4","Wed Feb 16 2022 08:34:43 GMT+0100 (CET)","2022","2","16","8","34","43","mw73","48","male","right","50","90","93","1","0","","","","","test","fear","fear","f","true"
"null","<div style=""font-size:60px;"">+</div>","null","html-keyboard-response","25","200235","0.0-9.0-0.8","mu2rx4","Wed Feb 16 2022 08:34:43 GMT+0100 (CET)","2022","2","16","8","34","43","mw73","48","male","right","50","90","93","1","0","","","","","fixation","","","",""
"656","img/image_stim_h.png","72","image-keyboard-response","26","200892","0.0-9.0-1.8","mu2rx4","Wed Feb 16 2022 08:34:43 GMT+0100 (CET)","2022","2","16","8","34","43","mw73","48","male","right","50","90","93","1","0","","","","","test","happy","happy","h","true"
"null","<div style=""font-size:60px;"">+</div>","null","html-keyboard-response","27","202144","0.0-9.0-0.9","mu2rx4","Wed Feb 16 2022 08:34:43 GMT+0100 (CET)","2022","2","16","8","34","43","mw73","48","male","right","50","90","93","1","0","","","","","fixation","","","",""
"760","img/image_stim_h_stroop.png","72","image-keyboard-response","28","202905","0.0-9.0-1.9","mu2rx4","Wed Feb 16 2022 08:34:43 GMT+0100 (CET)","2022","2","16","8","34","43","mw73","48","male","right","50","90","93","1","0","","","","","test","happy","fear","h","true"
"null","<div style=""font-size:60px;"">+</div>","null","html-keyboard-response","29","203158","0.0-9.0-0.10","mu2rx4","Wed Feb 16 2022 08:34:43 GMT+0100 (CET)","2022","2","16","8","34","43","mw73","48","male","right","50","90","93","1","0","","","","","fixation","","","",""
"612","img/image_stim_f_stroop.png","70","image-keyboard-response","30","203770","0.0-9.0-1.10","mu2rx4","Wed Feb 16 2022 08:34:43 GMT+0100 (CET)","2022","2","16","8","34","43","mw73","48","male","right","50","90","93","1","0","","","","","test","fear","happy","f","true"
"null","<div style=""font-size:60px;"">+</div>","null","html-keyboard-response","31","204022","0.0-9.0-0.11","mu2rx4","Wed Feb 16 2022 08:34:43 GMT+0100 (CET)","2022","2","16","8","34","43","mw73","48","male","right","50","90","93","1","0","","","","","fixation","","","",""
"782","img/image_stim_f.png","70","image-keyboard-response","32","204804","0.0-9.0-1.11","mu2rx4","Wed Feb 16 2022 08:34:43 GMT+0100 (CET)","2022","2","16","8","34","43","mw73","48","male","right","50","90","93","1","0","","","","","test","fear","fear","f","true"
"null","<div style=""font-size:60px;"">+</div>","null","html-keyboard-response","33","205807","0.0-9.0-0.12","mu2rx4","Wed Feb 16 2022 08:34:43 GMT+0100 (CET)","2022","2","16","8","34","43","mw73","48","male","right","50","90","93","1","0","","","","","fixation","","","",""
"839","img/image_stim_f.png","70","image-keyboard-response","34","206646","0.0-9.0-1.12","mu2rx4","Wed Feb 16 2022 08:34:43 GMT+0100 (CET)","2022","2","16","8","34","43","mw73","48","male","right","50","90","93","1","0","","","","","test","fear","fear","f","true"
"null","<div style=""font-size:60px;"">+</div>","null","html-keyboard-response","35","207649","0.0-9.0-0.13","mu2rx4","Wed Feb 16 2022 08:34:43 GMT+0100 (CET)","2022","2","16","8","34","43","mw73","48","male","right","50","90","93","1","0","","","","","fixation","","","",""
"543.0000000000291","img/image_stim_f_stroop.png","70","image-keyboard-response","36","208193","0.0-9.0-1.13","mu2rx4","Wed Feb 16 2022 08:34:43 GMT+0100 (CET)","2022","2","16","8","34","43","mw73","48","male","right","50","90","93","1","0","","","","","test","fear","happy","f","true"
"null","<div style=""font-size:60px;"">+</div>","null","html-keyboard-response","37","209945","0.0-9.0-0.14","mu2rx4","Wed Feb 16 2022 08:34:43 GMT+0100 (CET)","2022","2","16","8","34","43","mw73","48","male","right","50","90","93","1","0","","","","","fixation","","","",""
"568.0000000000291","img/image_stim_h_stroop.png","72","image-keyboard-response","38","210514","0.0-9.0-1.14","mu2rx4","Wed Feb 16 2022 08:34:43 GMT+0100 (CET)","2022","2","16","8","34","43","mw73","48","male","right","50","90","93","1","0","","","","","test","happy","fear","h","true"
"null","<div style=""font-size:60px;"">+</div>","null","html-keyboard-response","39","211766","0.0-9.0-0.15","mu2rx4","Wed Feb 16 2022 08:34:43 GMT+0100 (CET)","2022","2","16","8","34","43","mw73","48","male","right","50","90","93","1","0","","","","","fixation","","","",""
"730","img/image_stim_h.png","72","image-keyboard-response","40","212496","0.0-9.0-1.15","mu2rx4","Wed Feb 16 2022 08:34:43 GMT+0100 (CET)","2022","2","16","8","34","43","mw73","48","male","right","50","90","93","1","0","","","","","test","happy","happy","h","true"
"null","<div style=""font-size:60px;"">+</div>","null","html-keyboard-response","41","213499","0.0-9.0-0.16","mu2rx4","Wed Feb 16 2022 08:34:43 GMT+0100 (CET)","2022","2","16","8","34","43","mw73","48","male","right","50","90","93","1","0","","","","","fixation","","","",""
"682","img/image_stim_f_stroop.png","70","image-keyboard-response","42","214182","0.0-9.0-1.16","mu2rx4","Wed Feb 16 2022 08:34:43 GMT+0100 (CET)","2022","2","16","8","34","43","mw73","48","male","right","50","90","93","1","0","","","","","test","fear","happy","f","true"
"null","<div style=""font-size:60px;"">+</div>","null","html-keyboard-response","43","214434","0.0-9.0-0.17","mu2rx4","Wed Feb 16 2022 08:34:43 GMT+0100 (CET)","2022","2","16","8","34","43","mw73","48","male","right","50","90","93","1","0","","","","","fixation","","","",""
"606","img/image_stim_h.png","72","image-keyboard-response","44","215040","0.0-9.0-1.17","mu2rx4","Wed Feb 16 2022 08:34:43 GMT+0100 (CET)","2022","2","16","8","34","43","mw73","48","male","right","50","90","93","1","0","","","","","test","happy","happy","h","true"
"null","<div style=""font-size:60px;"">+</div>","null","html-keyboard-response","45","216792","0.0-9.0-0.18","mu2rx4","Wed Feb 16 2022 08:34:43 GMT+0100 (CET)","2022","2","16","8","34","43","mw73","48","male","right","50","90","93","1","0","","","","","fixation","","","",""
"615","img/image_stim_h_stroop.png","72","image-keyboard-response","46","217407","0.0-9.0-1.18","mu2rx4","Wed Feb 16 2022 08:34:43 GMT+0100 (CET)","2022","2","16","8","34","43","mw73","48","male","right","50","90","93","1","0","","","","","test","happy","fear","h","true"
"null","<div style=""font-size:60px;"">+</div>","null","html-keyboard-response","47","218659","0.0-9.0-0.19","mu2rx4","Wed Feb 16 2022 08:34:43 GMT+0100 (CET)","2022","2","16","8","34","43","mw73","48","male","right","50","90","93","1","0","","","","","fixation","","","",""
"585","img/image_stim_f.png","70","image-keyboard-response","48","219245","0.0-9.0-1.19","mu2rx4","Wed Feb 16 2022 08:34:43 GMT+0100 (CET)","2022","2","16","8","34","43","mw73","48","male","right","50","90","93","1","0","","","","","test","fear","fear","f","true"
"null","<div style=""font-size:60px;"">+</div>","null","html-keyboard-response","49","219748","0.0-9.0-0.20","mu2rx4","Wed Feb 16 2022 08:34:43 GMT+0100 (CET)","2022","2","16","8","34","43","mw73","48","male","right","50","90","93","1","0","","","","","fixation","","","",""
"698","img/image_stim_f.png","70","image-keyboard-response","50","220446","0.0-9.0-1.20","mu2rx4","Wed Feb 16 2022 08:34:43 GMT+0100 (CET)","2022","2","16","8","34","43","mw73","48","male","right","50","90","93","1","0","","","","","test","fear","fear","f","true"
"null","<div style=""font-size:60px;"">+</div>","null","html-keyboard-response","51","221448","0.0-9.0-0.21","mu2rx4","Wed Feb 16 2022 08:34:43 GMT+0100 (CET)","2022","2","16","8","34","43","mw73","48","male","right","50","90","93","1","0","","","","","fixation","","","",""
"732.9999999999709","img/image_stim_f_stroop.png","70","image-keyboard-response","52","222182","0.0-9.0-1.21","mu2rx4","Wed Feb 16 2022 08:34:43 GMT+0100 (CET)","2022","2","16","8","34","43","mw73","48","male","right","50","90","93","1","0","","","","","test","fear","happy","f","true"
"null","<div style=""font-size:60px;"">+</div>","null","html-keyboard-response","53","222934","0.0-9.0-0.22","mu2rx4","Wed Feb 16 2022 08:34:43 GMT+0100 (CET)","2022","2","16","8","34","43","mw73","48","male","right","50","90","93","1","0","","","","","fixation","","","",""
"577","img/image_stim_h_stroop.png","72","image-keyboard-response","54","223512","0.0-9.0-1.22","mu2rx4","Wed Feb 16 2022 08:34:43 GMT+0100 (CET)","2022","2","16","8","34","43","mw73","48","male","right","50","90","93","1","0","","","","","test","happy","fear","h","true"
"null","<div style=""font-size:60px;"">+</div>","null","html-keyboard-response","55","224765","0.0-9.0-0.23","mu2rx4","Wed Feb 16 2022 08:34:43 GMT+0100 (CET)","2022","2","16","8","34","43","mw73","48","male","right","50","90","93","1","0","","","","","fixation","","","",""
"638","img/image_stim_h.png","72","image-keyboard-response","56","225404","0.0-9.0-1.23","mu2rx4","Wed Feb 16 2022 08:34:43 GMT+0100 (CET)","2022","2","16","8","34","43","mw73","48","male","right","50","90","93","1","0","","","","","test","happy","happy","h","true"
"null","<div style=""font-size:60px;"">+</div>","null","html-keyboard-response","57","226406","0.0-9.0-0.24","mu2rx4","Wed Feb 16 2022 08:34:43 GMT+0100 (CET)","2022","2","16","8","34","43","mw73","48","male","right","50","90","93","1","0","","","","","fixation","","","",""
"644.9999999999709","img/image_stim_h_stroop.png","72","image-keyboard-response","58","227051","0.0-9.0-1.24","mu2rx4","Wed Feb 16 2022 08:34:43 GMT+0100 (CET)","2022","2","16","8","34","43","mw73","48","male","right","50","90","93","1","0","","","","","test","happy","fear","h","true"
"null","<div style=""font-size:60px;"">+</div>","null","html-keyboard-response","59","228054","0.0-9.0-0.25","mu2rx4","Wed Feb 16 2022 08:34:43 GMT+0100 (CET)","2022","2","16","8","34","43","mw73","48","male","right","50","90","93","1","0","","","","","fixation","","","",""
"535","img/image_stim_h.png","72","image-keyboard-response","60","228590","0.0-9.0-1.25","mu2rx4","Wed Feb 16 2022 08:34:43 GMT+0100 (CET)","2022","2","16","8","34","43","mw73","48","male","right","50","90","93","1","0","","","","","test","happy","happy","h","true"
"null","<div style=""font-size:60px;"">+</div>","null","html-keyboard-response","61","230342","0.0-9.0-0.26","mu2rx4","Wed Feb 16 2022 08:34:43 GMT+0100 (CET)","2022","2","16","8","34","43","mw73","48","male","right","50","90","93","1","0","","","","","fixation","","","",""
"587","img/image_stim_f_stroop.png","70","image-keyboard-response","62","230930","0.0-9.0-1.26","mu2rx4","Wed Feb 16 2022 08:34:43 GMT+0100 (CET)","2022","2","16","8","34","43","mw73","48","male","right","50","90","93","1","0","","","","","test","fear","happy","f","true"
"null","<div style=""font-size:60px;"">+</div>","null","html-keyboard-response","63","231682","0.0-9.0-0.27","mu2rx4","Wed Feb 16 2022 08:34:43 GMT+0100 (CET)","2022","2","16","8","34","43","mw73","48","male","right","50","90","93","1","0","","","","","fixation","","","",""
"1009","img/image_stim_f.png","70","image-keyboard-response","64","232692","0.0-9.0-1.27","mu2rx4","Wed Feb 16 2022 08:34:43 GMT+0100 (CET)","2022","2","16","8","34","43","mw73","48","male","right","50","90","93","1","0","","","","","test","fear","fear","f","true"
"null","<div style=""font-size:60px;"">+</div>","null","html-keyboard-response","65","233696","0.0-9.0-0.28","mu2rx4","Wed Feb 16 2022 08:34:43 GMT+0100 (CET)","2022","2","16","8","34","43","mw73","48","male","right","50","90","93","1","0","","","","","fixation","","","",""
"659","img/image_stim_h.png","72","image-keyboard-response","66","234356","0.0-9.0-1.28","mu2rx4","Wed Feb 16 2022 08:34:43 GMT+0100 (CET)","2022","2","16","8","34","43","mw73","48","male","right","50","90","93","1","0","","","","","test","happy","happy","h","true"
"null","<div style=""font-size:60px;"">+</div>","null","html-keyboard-response","67","234859","0.0-9.0-0.29","mu2rx4","Wed Feb 16 2022 08:34:43 GMT+0100 (CET)","2022","2","16","8","34","43","mw73","48","male","right","50","90","93","1","0","","","","","fixation","","","",""
"644.9999999999709","img/image_stim_f.png","70","image-keyboard-response","68","235505","0.0-9.0-1.29","mu2rx4","Wed Feb 16 2022 08:34:43 GMT+0100 (CET)","2022","2","16","8","34","43","mw73","48","male","right","50","90","93","1","0","","","","","test","fear","fear","f","true"
"null","<div style=""font-size:60px;"">+</div>","null","html-keyboard-response","69","237007","0.0-9.0-0.30","mu2rx4","Wed Feb 16 2022 08:34:43 GMT+0100 (CET)","2022","2","16","8","34","43","mw73","48","male","right","50","90","93","1","0","","","","","fixation","","","",""
"658.9999999999709","img/image_stim_h_stroop.png","72","image-keyboard-response","70","237667","0.0-9.0-1.30","mu2rx4","Wed Feb 16 2022 08:34:43 GMT+0100 (CET)","2022","2","16","8","34","43","mw73","48","male","right","50","90","93","1","0","","","","","test","happy","fear","h","true"
"null","<div style=""font-size:60px;"">+</div>","null","html-keyboard-response","71","238671","0.0-9.0-0.31","mu2rx4","Wed Feb 16 2022 08:34:43 GMT+0100 (CET)","2022","2","16","8","34","43","mw73","48","male","right","50","90","93","1","0","","","","","fixation","","","",""
"597","img/image_stim_f_stroop.png","70","image-keyboard-response","72","239269","0.0-9.0-1.31","mu2rx4","Wed Feb 16 2022 08:34:43 GMT+0100 (CET)","2022","2","16","8","34","43","mw73","48","male","right","50","90","93","1","0","","","","","test","fear","happy","f","true"
"null","<div style=""font-size:60px;"">+</div>","null","html-keyboard-response","73","240772","0.0-9.0-0.32","mu2rx4","Wed Feb 16 2022 08:34:43 GMT+0100 (CET)","2022","2","16","8","34","43","mw73","48","male","right","50","90","93","1","0","","","","","fixation","","","",""
"672","img/image_stim_h.png","72","image-keyboard-response","74","241445","0.0-9.0-1.32","mu2rx4","Wed Feb 16 2022 08:34:43 GMT+0100 (CET)","2022","2","16","8","34","43","mw73","48","male","right","50","90","93","1","0","","","","","test","happy","happy","h","true"
"null","<div style=""font-size:60px;"">+</div>","null","html-keyboard-response","75","242449","0.0-9.0-0.33","mu2rx4","Wed Feb 16 2022 08:34:43 GMT+0100 (CET)","2022","2","16","8","34","43","mw73","48","male","right","50","90","93","1","0","","","","","fixation","","","",""
"572","img/image_stim_f_stroop.png","70","image-keyboard-response","76","243022","0.0-9.0-1.33","mu2rx4","Wed Feb 16 2022 08:34:43 GMT+0100 (CET)","2022","2","16","8","34","43","mw73","48","male","right","50","90","93","1","0","","","","","test","fear","happy","f","true"
"null","<div style=""font-size:60px;"">+</div>","null","html-keyboard-response","77","244276","0.0-9.0-0.34","mu2rx4","Wed Feb 16 2022 08:34:43 GMT+0100 (CET)","2022","2","16","8","34","43","mw73","48","male","right","50","90","93","1","0","","","","","fixation","","","",""
"787","img/image_stim_f.png","70","image-keyboard-response","78","245065","0.0-9.0-1.34","mu2rx4","Wed Feb 16 2022 08:34:43 GMT+0100 (CET)","2022","2","16","8","34","43","mw73","48","male","right","50","90","93","1","0","","","","","test","fear","fear","f","true"
"null","<div style=""font-size:60px;"">+</div>","null","html-keyboard-response","79","245569","0.0-9.0-0.35","mu2rx4","Wed Feb 16 2022 08:34:43 GMT+0100 (CET)","2022","2","16","8","34","43","mw73","48","male","right","50","90","93","1","0","","","","","fixation","","","",""
"639","img/image_stim_h_stroop.png","72","image-keyboard-response","80","246209","0.0-9.0-1.35","mu2rx4","Wed Feb 16 2022 08:34:43 GMT+0100 (CET)","2022","2","16","8","34","43","mw73","48","male","right","50","90","93","1","0","","","","","test","happy","fear","h","true"
