"rt","stimulus","key_press","trial_type","trial_index","time_elapsed","internal_node_id","exp_id","Time","year","month","date","hour","minute","seconds","id","age","Gender","Handedness","mood","fresh","hunger","H_since_Sleep","H_since_Eat","responses","question_order","slider_start","response","test_part","face","word","correct_response","correct"
"11681","<p>Welcome to this experiment on daily rhythms and cognition.</p><p>First you will be asked some questions about yourself.</p><p>Then a short experiment will measure your response time.</p><p>Take the test at different times of the day/night.</p><p>The test is anonymous, but comparing your data across time is important.</p><p>Therefore, please make up and remember a personal ID (two letters+ two numbers).</p><p>Use this ID whenever taking the test.</p><p><strong>Press any key to begin.</strong></p>","32","html-keyboard-response","0","11684","0.0-0.0","zfgrrg","Wed Feb 09 2022 12:53:38 GMT+0100 (Mitteleuropäische Normalzeit)","2022","2","9","12","53","38","UR13","23","female","right","31","40","42","6","4","","","","","","","","",""
"29990","","","survey-text","1","41719","0.0-1.0","zfgrrg","Wed Feb 09 2022 12:53:38 GMT+0100 (Mitteleuropäische Normalzeit)","2022","2","9","12","53","38","UR13","23","female","right","31","40","42","6","4","{""Q0"":""UR13""}","","","","","","","",""
"2086","","","survey-text","2","43811","0.0-2.0","zfgrrg","Wed Feb 09 2022 12:53:38 GMT+0100 (Mitteleuropäische Normalzeit)","2022","2","9","12","53","38","UR13","23","female","right","31","40","42","6","4","{""Q0"":""23""}","","","","","","","",""
"4250","","","survey-multi-select","3","48067","0.0-3.0","zfgrrg","Wed Feb 09 2022 12:53:38 GMT+0100 (Mitteleuropäische Normalzeit)","2022","2","9","12","53","38","UR13","23","female","right","31","40","42","6","4","{""Gender"":[""female""],""Hand"":[""right""]}","[0,1]","","","","","","",""
"3547","<p>How Sad/Angry or Happy are you right now?</p>","","html-slider-response","4","51695","0.0-4.0","zfgrrg","Wed Feb 09 2022 12:53:38 GMT+0100 (Mitteleuropäische Normalzeit)","2022","2","9","12","53","38","UR13","23","female","right","31","40","42","6","4","","","50","31","","","","",""
"4637","<p>How Tired/Sleepy/Distracted or Fresh/Awake/Alert are you right now?</p>","","html-slider-response","5","56335","0.0-5.0","zfgrrg","Wed Feb 09 2022 12:53:38 GMT+0100 (Mitteleuropäische Normalzeit)","2022","2","9","12","53","38","UR13","23","female","right","31","40","42","6","4","","","50","40","","","","",""
"3094","<p>How Hungry or Satiated are you right now?</p>","","html-slider-response","6","59434","0.0-6.0","zfgrrg","Wed Feb 09 2022 12:53:38 GMT+0100 (Mitteleuropäische Normalzeit)","2022","2","9","12","53","38","UR13","23","female","right","31","40","42","6","4","","","50","42","","","","",""
"31940","","","survey-multi-select","7","91406","0.0-7.0","zfgrrg","Wed Feb 09 2022 12:53:38 GMT+0100 (Mitteleuropäische Normalzeit)","2022","2","9","12","53","38","UR13","23","female","right","31","40","42","6","4","{""Sleep"":[""6""],""Eat"":[""4""]}","[0,1]","","","","","","",""
"23478","<p>In this experiment, a face and a word will appear in the center of the screen.</p><p>If the face is <strong>happy</strong>, press the letter <strong>H</strong> with <strong>right</strong> index finger.</p><p>If the face is <strong>fearful</strong>, press the letter <strong>F</strong> with <strong>left</strong> index finger.</p><p><strong>Ignore the written words</strong>. Respond as fast as possible while being correct. </p><div style='width: 900px;'><div style='float: left;'><img src='img/stimuli_stroop_happy.png'></img><p class='small'><strong>Press the H key for happy faces</strong></p></div><div class='float: right;'><img src='img/stimuli_stroop_fear.png'></img><p class='small'><strong>Press the F key for faces with fear</strong></p></div></div><p>If the screen turns blank, press <strong>SPACE</strong></p><p><strong>Press any key to begin.</strong></p>","32","html-keyboard-response","8","114889","0.0-8.0","zfgrrg","Wed Feb 09 2022 12:53:38 GMT+0100 (Mitteleuropäische Normalzeit)","2022","2","9","12","53","38","UR13","23","female","right","31","40","42","6","4","","","","","","","","",""
"null","<div style=""font-size:60px;"">+</div>","null","html-keyboard-response","9","117660","0.0-9.0-0.0","zfgrrg","Wed Feb 09 2022 12:53:38 GMT+0100 (Mitteleuropäische Normalzeit)","2022","2","9","12","53","38","UR13","23","female","right","31","40","42","6","4","","","","","fixation","","","",""
"919","img/image_stim_h.png","72","image-keyboard-response","10","118628","0.0-9.0-1.0","zfgrrg","Wed Feb 09 2022 12:53:38 GMT+0100 (Mitteleuropäische Normalzeit)","2022","2","9","12","53","38","UR13","23","female","right","31","40","42","6","4","","","","","test","happy","happy","h","true"
"null","<div style=""font-size:60px;"">+</div>","null","html-keyboard-response","11","120686","0.0-9.0-0.1","zfgrrg","Wed Feb 09 2022 12:53:38 GMT+0100 (Mitteleuropäische Normalzeit)","2022","2","9","12","53","38","UR13","23","female","right","31","40","42","6","4","","","","","fixation","","","",""
"578","img/image_stim_h_stroop.png","72","image-keyboard-response","12","121269","0.0-9.0-1.1","zfgrrg","Wed Feb 09 2022 12:53:38 GMT+0100 (Mitteleuropäische Normalzeit)","2022","2","9","12","53","38","UR13","23","female","right","31","40","42","6","4","","","","","test","happy","fear","h","true"
"null","<div style=""font-size:60px;"">+</div>","null","html-keyboard-response","13","122535","0.0-9.0-0.2","zfgrrg","Wed Feb 09 2022 12:53:38 GMT+0100 (Mitteleuropäische Normalzeit)","2022","2","9","12","53","38","UR13","23","female","right","31","40","42","6","4","","","","","fixation","","","",""
"589","img/image_stim_f_stroop.png","70","image-keyboard-response","14","123169","0.0-9.0-1.2","zfgrrg","Wed Feb 09 2022 12:53:38 GMT+0100 (Mitteleuropäische Normalzeit)","2022","2","9","12","53","38","UR13","23","female","right","31","40","42","6","4","","","","","test","fear","happy","f","true"
"null","<div style=""font-size:60px;"">+</div>","null","html-keyboard-response","15","123722","0.0-9.0-0.3","zfgrrg","Wed Feb 09 2022 12:53:38 GMT+0100 (Mitteleuropäische Normalzeit)","2022","2","9","12","53","38","UR13","23","female","right","31","40","42","6","4","","","","","fixation","","","",""
"522","img/image_stim_f.png","70","image-keyboard-response","16","124250","0.0-9.0-1.3","zfgrrg","Wed Feb 09 2022 12:53:38 GMT+0100 (Mitteleuropäische Normalzeit)","2022","2","9","12","53","38","UR13","23","female","right","31","40","42","6","4","","","","","test","fear","fear","f","true"
"null","<div style=""font-size:60px;"">+</div>","null","html-keyboard-response","17","124762","0.0-9.0-0.4","zfgrrg","Wed Feb 09 2022 12:53:38 GMT+0100 (Mitteleuropäische Normalzeit)","2022","2","9","12","53","38","UR13","23","female","right","31","40","42","6","4","","","","","fixation","","","",""
"488","img/image_stim_h.png","72","image-keyboard-response","18","125253","0.0-9.0-1.4","zfgrrg","Wed Feb 09 2022 12:53:38 GMT+0100 (Mitteleuropäische Normalzeit)","2022","2","9","12","53","38","UR13","23","female","right","31","40","42","6","4","","","","","test","happy","happy","h","true"
"null","<div style=""font-size:60px;"">+</div>","null","html-keyboard-response","19","127269","0.0-9.0-0.5","zfgrrg","Wed Feb 09 2022 12:53:38 GMT+0100 (Mitteleuropäische Normalzeit)","2022","2","9","12","53","38","UR13","23","female","right","31","40","42","6","4","","","","","fixation","","","",""
"660","img/image_stim_f.png","70","image-keyboard-response","20","127932","0.0-9.0-1.5","zfgrrg","Wed Feb 09 2022 12:53:38 GMT+0100 (Mitteleuropäische Normalzeit)","2022","2","9","12","53","38","UR13","23","female","right","31","40","42","6","4","","","","","test","fear","fear","f","true"
"null","<div style=""font-size:60px;"">+</div>","null","html-keyboard-response","21","129940","0.0-9.0-0.6","zfgrrg","Wed Feb 09 2022 12:53:38 GMT+0100 (Mitteleuropäische Normalzeit)","2022","2","9","12","53","38","UR13","23","female","right","31","40","42","6","4","","","","","fixation","","","",""
"607","img/image_stim_f_stroop.png","70","image-keyboard-response","22","130550","0.0-9.0-1.6","zfgrrg","Wed Feb 09 2022 12:53:38 GMT+0100 (Mitteleuropäische Normalzeit)","2022","2","9","12","53","38","UR13","23","female","right","31","40","42","6","4","","","","","test","fear","happy","f","true"
"null","<div style=""font-size:60px;"">+</div>","null","html-keyboard-response","23","131306","0.0-9.0-0.7","zfgrrg","Wed Feb 09 2022 12:53:38 GMT+0100 (Mitteleuropäische Normalzeit)","2022","2","9","12","53","38","UR13","23","female","right","31","40","42","6","4","","","","","fixation","","","",""
"791","img/image_stim_h_stroop.png","72","image-keyboard-response","24","132099","0.0-9.0-1.7","zfgrrg","Wed Feb 09 2022 12:53:38 GMT+0100 (Mitteleuropäische Normalzeit)","2022","2","9","12","53","38","UR13","23","female","right","31","40","42","6","4","","","","","test","happy","fear","h","true"
"null","<div style=""font-size:60px;"">+</div>","null","html-keyboard-response","25","133105","0.0-9.0-0.8","zfgrrg","Wed Feb 09 2022 12:53:38 GMT+0100 (Mitteleuropäische Normalzeit)","2022","2","9","12","53","38","UR13","23","female","right","31","40","42","6","4","","","","","fixation","","","",""
"574","img/image_stim_f.png","70","image-keyboard-response","26","133682","0.0-9.0-1.8","zfgrrg","Wed Feb 09 2022 12:53:38 GMT+0100 (Mitteleuropäische Normalzeit)","2022","2","9","12","53","38","UR13","23","female","right","31","40","42","6","4","","","","","test","fear","fear","f","true"
"null","<div style=""font-size:60px;"">+</div>","null","html-keyboard-response","27","133947","0.0-9.0-0.9","zfgrrg","Wed Feb 09 2022 12:53:38 GMT+0100 (Mitteleuropäische Normalzeit)","2022","2","9","12","53","38","UR13","23","female","right","31","40","42","6","4","","","","","fixation","","","",""
"516","img/image_stim_h_stroop.png","72","image-keyboard-response","28","134464","0.0-9.0-1.9","zfgrrg","Wed Feb 09 2022 12:53:38 GMT+0100 (Mitteleuropäische Normalzeit)","2022","2","9","12","53","38","UR13","23","female","right","31","40","42","6","4","","","","","test","happy","fear","h","true"
"null","<div style=""font-size:60px;"">+</div>","null","html-keyboard-response","29","134980","0.0-9.0-0.10","zfgrrg","Wed Feb 09 2022 12:53:38 GMT+0100 (Mitteleuropäische Normalzeit)","2022","2","9","12","53","38","UR13","23","female","right","31","40","42","6","4","","","","","fixation","","","",""
"617","img/image_stim_f_stroop.png","70","image-keyboard-response","30","135600","0.0-9.0-1.10","zfgrrg","Wed Feb 09 2022 12:53:38 GMT+0100 (Mitteleuropäische Normalzeit)","2022","2","9","12","53","38","UR13","23","female","right","31","40","42","6","4","","","","","test","fear","happy","f","true"
"null","<div style=""font-size:60px;"">+</div>","null","html-keyboard-response","31","136856","0.0-9.0-0.11","zfgrrg","Wed Feb 09 2022 12:53:38 GMT+0100 (Mitteleuropäische Normalzeit)","2022","2","9","12","53","38","UR13","23","female","right","31","40","42","6","4","","","","","fixation","","","",""
"527","img/image_stim_h.png","72","image-keyboard-response","32","137384","0.0-9.0-1.11","zfgrrg","Wed Feb 09 2022 12:53:38 GMT+0100 (Mitteleuropäische Normalzeit)","2022","2","9","12","53","38","UR13","23","female","right","31","40","42","6","4","","","","","test","happy","happy","h","true"
"null","<div style=""font-size:60px;"">+</div>","null","html-keyboard-response","33","138641","0.0-9.0-0.12","zfgrrg","Wed Feb 09 2022 12:53:38 GMT+0100 (Mitteleuropäische Normalzeit)","2022","2","9","12","53","38","UR13","23","female","right","31","40","42","6","4","","","","","fixation","","","",""
"513","img/image_stim_f_stroop.png","70","image-keyboard-response","34","139157","0.0-9.0-1.12","zfgrrg","Wed Feb 09 2022 12:53:38 GMT+0100 (Mitteleuropäische Normalzeit)","2022","2","9","12","53","38","UR13","23","female","right","31","40","42","6","4","","","","","test","fear","happy","f","true"
"null","<div style=""font-size:60px;"">+</div>","null","html-keyboard-response","35","141173","0.0-9.0-0.13","zfgrrg","Wed Feb 09 2022 12:53:38 GMT+0100 (Mitteleuropäische Normalzeit)","2022","2","9","12","53","38","UR13","23","female","right","31","40","42","6","4","","","","","fixation","","","",""
"552","img/image_stim_h_stroop.png","72","image-keyboard-response","36","141726","0.0-9.0-1.13","zfgrrg","Wed Feb 09 2022 12:53:38 GMT+0100 (Mitteleuropäische Normalzeit)","2022","2","9","12","53","38","UR13","23","female","right","31","40","42","6","4","","","","","test","happy","fear","h","true"
"null","<div style=""font-size:60px;"">+</div>","null","html-keyboard-response","37","142487","0.0-9.0-0.14","zfgrrg","Wed Feb 09 2022 12:53:38 GMT+0100 (Mitteleuropäische Normalzeit)","2022","2","9","12","53","38","UR13","23","female","right","31","40","42","6","4","","","","","fixation","","","",""
"485","img/image_stim_f.png","70","image-keyboard-response","38","142973","0.0-9.0-1.14","zfgrrg","Wed Feb 09 2022 12:53:38 GMT+0100 (Mitteleuropäische Normalzeit)","2022","2","9","12","53","38","UR13","23","female","right","31","40","42","6","4","","","","","test","fear","fear","f","true"
"null","<div style=""font-size:60px;"">+</div>","null","html-keyboard-response","39","144738","0.0-9.0-0.15","zfgrrg","Wed Feb 09 2022 12:53:38 GMT+0100 (Mitteleuropäische Normalzeit)","2022","2","9","12","53","38","UR13","23","female","right","31","40","42","6","4","","","","","fixation","","","",""
"505","img/image_stim_h.png","72","image-keyboard-response","40","145245","0.0-9.0-1.15","zfgrrg","Wed Feb 09 2022 12:53:38 GMT+0100 (Mitteleuropäische Normalzeit)","2022","2","9","12","53","38","UR13","23","female","right","31","40","42","6","4","","","","","test","happy","happy","h","true"
"null","<div style=""font-size:60px;"">+</div>","null","html-keyboard-response","41","145763","0.0-9.0-0.16","zfgrrg","Wed Feb 09 2022 12:53:38 GMT+0100 (Mitteleuropäische Normalzeit)","2022","2","9","12","53","38","UR13","23","female","right","31","40","42","6","4","","","","","fixation","","","",""
"479","img/image_stim_f.png","70","image-keyboard-response","42","146244","0.0-9.0-1.16","zfgrrg","Wed Feb 09 2022 12:53:38 GMT+0100 (Mitteleuropäische Normalzeit)","2022","2","9","12","53","38","UR13","23","female","right","31","40","42","6","4","","","","","test","fear","fear","f","true"
"null","<div style=""font-size:60px;"">+</div>","null","html-keyboard-response","43","147763","0.0-9.0-0.17","zfgrrg","Wed Feb 09 2022 12:53:38 GMT+0100 (Mitteleuropäische Normalzeit)","2022","2","9","12","53","38","UR13","23","female","right","31","40","42","6","4","","","","","fixation","","","",""
"530","img/image_stim_h_stroop.png","72","image-keyboard-response","44","148295","0.0-9.0-1.17","zfgrrg","Wed Feb 09 2022 12:53:38 GMT+0100 (Mitteleuropäische Normalzeit)","2022","2","9","12","53","38","UR13","23","female","right","31","40","42","6","4","","","","","test","happy","fear","h","true"
"null","<div style=""font-size:60px;"">+</div>","null","html-keyboard-response","45","149550","0.0-9.0-0.18","zfgrrg","Wed Feb 09 2022 12:53:38 GMT+0100 (Mitteleuropäische Normalzeit)","2022","2","9","12","53","38","UR13","23","female","right","31","40","42","6","4","","","","","fixation","","","",""
"493","img/image_stim_f_stroop.png","70","image-keyboard-response","46","150043","0.0-9.0-1.18","zfgrrg","Wed Feb 09 2022 12:53:38 GMT+0100 (Mitteleuropäische Normalzeit)","2022","2","9","12","53","38","UR13","23","female","right","31","40","42","6","4","","","","","test","fear","happy","f","true"
"null","<div style=""font-size:60px;"">+</div>","null","html-keyboard-response","47","151800","0.0-9.0-0.19","zfgrrg","Wed Feb 09 2022 12:53:38 GMT+0100 (Mitteleuropäische Normalzeit)","2022","2","9","12","53","38","UR13","23","female","right","31","40","42","6","4","","","","","fixation","","","",""
"499","img/image_stim_h.png","72","image-keyboard-response","48","152300","0.0-9.0-1.19","zfgrrg","Wed Feb 09 2022 12:53:38 GMT+0100 (Mitteleuropäische Normalzeit)","2022","2","9","12","53","38","UR13","23","female","right","31","40","42","6","4","","","","","test","happy","happy","h","true"
"null","<div style=""font-size:60px;"">+</div>","null","html-keyboard-response","49","153562","0.0-9.0-0.20","zfgrrg","Wed Feb 09 2022 12:53:38 GMT+0100 (Mitteleuropäische Normalzeit)","2022","2","9","12","53","38","UR13","23","female","right","31","40","42","6","4","","","","","fixation","","","",""
"602","img/image_stim_f_stroop.png","70","image-keyboard-response","50","154166","0.0-9.0-1.20","zfgrrg","Wed Feb 09 2022 12:53:38 GMT+0100 (Mitteleuropäische Normalzeit)","2022","2","9","12","53","38","UR13","23","female","right","31","40","42","6","4","","","","","test","fear","happy","f","true"
"null","<div style=""font-size:60px;"">+</div>","null","html-keyboard-response","51","154423","0.0-9.0-0.21","zfgrrg","Wed Feb 09 2022 12:53:38 GMT+0100 (Mitteleuropäische Normalzeit)","2022","2","9","12","53","38","UR13","23","female","right","31","40","42","6","4","","","","","fixation","","","",""
"529","img/image_stim_f.png","70","image-keyboard-response","52","154954","0.0-9.0-1.21","zfgrrg","Wed Feb 09 2022 12:53:38 GMT+0100 (Mitteleuropäische Normalzeit)","2022","2","9","12","53","38","UR13","23","female","right","31","40","42","6","4","","","","","test","fear","fear","f","true"
"null","<div style=""font-size:60px;"">+</div>","null","html-keyboard-response","53","155471","0.0-9.0-0.22","zfgrrg","Wed Feb 09 2022 12:53:38 GMT+0100 (Mitteleuropäische Normalzeit)","2022","2","9","12","53","38","UR13","23","female","right","31","40","42","6","4","","","","","fixation","","","",""
"531","img/image_stim_h.png","72","image-keyboard-response","54","156003","0.0-9.0-1.22","zfgrrg","Wed Feb 09 2022 12:53:38 GMT+0100 (Mitteleuropäische Normalzeit)","2022","2","9","12","53","38","UR13","23","female","right","31","40","42","6","4","","","","","test","happy","happy","h","true"
"null","<div style=""font-size:60px;"">+</div>","null","html-keyboard-response","55","157272","0.0-9.0-0.23","zfgrrg","Wed Feb 09 2022 12:53:38 GMT+0100 (Mitteleuropäische Normalzeit)","2022","2","9","12","53","38","UR13","23","female","right","31","40","42","6","4","","","","","fixation","","","",""
"566","img/image_stim_h_stroop.png","72","image-keyboard-response","56","157843","0.0-9.0-1.23","zfgrrg","Wed Feb 09 2022 12:53:38 GMT+0100 (Mitteleuropäische Normalzeit)","2022","2","9","12","53","38","UR13","23","female","right","31","40","42","6","4","","","","","test","happy","fear","h","true"
"null","<div style=""font-size:60px;"">+</div>","null","html-keyboard-response","57","158852","0.0-9.0-0.24","zfgrrg","Wed Feb 09 2022 12:53:38 GMT+0100 (Mitteleuropäische Normalzeit)","2022","2","9","12","53","38","UR13","23","female","right","31","40","42","6","4","","","","","fixation","","","",""
"520","img/image_stim_h.png","72","image-keyboard-response","58","159374","0.0-9.0-1.24","zfgrrg","Wed Feb 09 2022 12:53:38 GMT+0100 (Mitteleuropäische Normalzeit)","2022","2","9","12","53","38","UR13","23","female","right","31","40","42","6","4","","","","","test","happy","happy","h","true"
"null","<div style=""font-size:60px;"">+</div>","null","html-keyboard-response","59","159885","0.0-9.0-0.25","zfgrrg","Wed Feb 09 2022 12:53:38 GMT+0100 (Mitteleuropäische Normalzeit)","2022","2","9","12","53","38","UR13","23","female","right","31","40","42","6","4","","","","","fixation","","","",""
"397","img/image_stim_h_stroop.png","72","image-keyboard-response","60","160284","0.0-9.0-1.25","zfgrrg","Wed Feb 09 2022 12:53:38 GMT+0100 (Mitteleuropäische Normalzeit)","2022","2","9","12","53","38","UR13","23","female","right","31","40","42","6","4","","","","","test","happy","fear","h","true"
"null","<div style=""font-size:60px;"">+</div>","null","html-keyboard-response","61","161294","0.0-9.0-0.26","zfgrrg","Wed Feb 09 2022 12:53:38 GMT+0100 (Mitteleuropäische Normalzeit)","2022","2","9","12","53","38","UR13","23","female","right","31","40","42","6","4","","","","","fixation","","","",""
"445","img/image_stim_f_stroop.png","70","image-keyboard-response","62","161742","0.0-9.0-1.26","zfgrrg","Wed Feb 09 2022 12:53:38 GMT+0100 (Mitteleuropäische Normalzeit)","2022","2","9","12","53","38","UR13","23","female","right","31","40","42","6","4","","","","","test","fear","happy","f","true"
"null","<div style=""font-size:60px;"">+</div>","null","html-keyboard-response","63","162746","0.0-9.0-0.27","zfgrrg","Wed Feb 09 2022 12:53:38 GMT+0100 (Mitteleuropäische Normalzeit)","2022","2","9","12","53","38","UR13","23","female","right","31","40","42","6","4","","","","","fixation","","","",""
"386","img/image_stim_f.png","70","image-keyboard-response","64","163133","0.0-9.0-1.27","zfgrrg","Wed Feb 09 2022 12:53:38 GMT+0100 (Mitteleuropäische Normalzeit)","2022","2","9","12","53","38","UR13","23","female","right","31","40","42","6","4","","","","","test","fear","fear","f","true"
"null","<div style=""font-size:60px;"">+</div>","null","html-keyboard-response","65","163892","0.0-9.0-0.28","zfgrrg","Wed Feb 09 2022 12:53:38 GMT+0100 (Mitteleuropäische Normalzeit)","2022","2","9","12","53","38","UR13","23","female","right","31","40","42","6","4","","","","","fixation","","","",""
"453","img/image_stim_f_stroop.png","70","image-keyboard-response","66","164346","0.0-9.0-1.28","zfgrrg","Wed Feb 09 2022 12:53:38 GMT+0100 (Mitteleuropäische Normalzeit)","2022","2","9","12","53","38","UR13","23","female","right","31","40","42","6","4","","","","","test","fear","happy","f","true"
"null","<div style=""font-size:60px;"">+</div>","null","html-keyboard-response","67","165851","0.0-9.0-0.29","zfgrrg","Wed Feb 09 2022 12:53:38 GMT+0100 (Mitteleuropäische Normalzeit)","2022","2","9","12","53","38","UR13","23","female","right","31","40","42","6","4","","","","","fixation","","","",""
"391","img/image_stim_f.png","70","image-keyboard-response","68","166244","0.0-9.0-1.29","zfgrrg","Wed Feb 09 2022 12:53:38 GMT+0100 (Mitteleuropäische Normalzeit)","2022","2","9","12","53","38","UR13","23","female","right","31","40","42","6","4","","","","","test","fear","fear","f","true"
"null","<div style=""font-size:60px;"">+</div>","null","html-keyboard-response","69","166510","0.0-9.0-0.30","zfgrrg","Wed Feb 09 2022 12:53:38 GMT+0100 (Mitteleuropäische Normalzeit)","2022","2","9","12","53","38","UR13","23","female","right","31","40","42","6","4","","","","","fixation","","","",""
"459","img/image_stim_h.png","72","image-keyboard-response","70","166969","0.0-9.0-1.30","zfgrrg","Wed Feb 09 2022 12:53:38 GMT+0100 (Mitteleuropäische Normalzeit)","2022","2","9","12","53","38","UR13","23","female","right","31","40","42","6","4","","","","","test","happy","happy","h","true"
"null","<div style=""font-size:60px;"">+</div>","null","html-keyboard-response","71","168475","0.0-9.0-0.31","zfgrrg","Wed Feb 09 2022 12:53:38 GMT+0100 (Mitteleuropäische Normalzeit)","2022","2","9","12","53","38","UR13","23","female","right","31","40","42","6","4","","","","","fixation","","","",""
"409","img/image_stim_h_stroop.png","70","image-keyboard-response","72","168886","0.0-9.0-1.31","zfgrrg","Wed Feb 09 2022 12:53:38 GMT+0100 (Mitteleuropäische Normalzeit)","2022","2","9","12","53","38","UR13","23","female","right","31","40","42","6","4","","","","","test","happy","fear","h","false"
"null","<div style=""font-size:60px;"">+</div>","null","html-keyboard-response","73","170651","0.0-9.0-0.32","zfgrrg","Wed Feb 09 2022 12:53:38 GMT+0100 (Mitteleuropäische Normalzeit)","2022","2","9","12","53","38","UR13","23","female","right","31","40","42","6","4","","","","","fixation","","","",""
"1160","img/image_stim_f_stroop.png","70","image-keyboard-response","74","171812","0.0-9.0-1.32","zfgrrg","Wed Feb 09 2022 12:53:38 GMT+0100 (Mitteleuropäische Normalzeit)","2022","2","9","12","53","38","UR13","23","female","right","31","40","42","6","4","","","","","test","fear","happy","f","true"
"null","<div style=""font-size:60px;"">+</div>","null","html-keyboard-response","75","173072","0.0-9.0-0.33","zfgrrg","Wed Feb 09 2022 12:53:38 GMT+0100 (Mitteleuropäische Normalzeit)","2022","2","9","12","53","38","UR13","23","female","right","31","40","42","6","4","","","","","fixation","","","",""
"599","img/image_stim_f.png","70","image-keyboard-response","76","173673","0.0-9.0-1.33","zfgrrg","Wed Feb 09 2022 12:53:38 GMT+0100 (Mitteleuropäische Normalzeit)","2022","2","9","12","53","38","UR13","23","female","right","31","40","42","6","4","","","","","test","fear","fear","f","true"
"null","<div style=""font-size:60px;"">+</div>","null","html-keyboard-response","77","174684","0.0-9.0-0.34","zfgrrg","Wed Feb 09 2022 12:53:38 GMT+0100 (Mitteleuropäische Normalzeit)","2022","2","9","12","53","38","UR13","23","female","right","31","40","42","6","4","","","","","fixation","","","",""
"524","img/image_stim_h_stroop.png","72","image-keyboard-response","78","175210","0.0-9.0-1.34","zfgrrg","Wed Feb 09 2022 12:53:38 GMT+0100 (Mitteleuropäische Normalzeit)","2022","2","9","12","53","38","UR13","23","female","right","31","40","42","6","4","","","","","test","happy","fear","h","true"
"null","<div style=""font-size:60px;"">+</div>","null","html-keyboard-response","79","176219","0.0-9.0-0.35","zfgrrg","Wed Feb 09 2022 12:53:38 GMT+0100 (Mitteleuropäische Normalzeit)","2022","2","9","12","53","38","UR13","23","female","right","31","40","42","6","4","","","","","fixation","","","",""
"543","img/image_stim_h.png","72","image-keyboard-response","80","176764","0.0-9.0-1.35","zfgrrg","Wed Feb 09 2022 12:53:38 GMT+0100 (Mitteleuropäische Normalzeit)","2022","2","9","12","53","38","UR13","23","female","right","31","40","42","6","4","","","","","test","happy","happy","h","true"
