"rt","stimulus","key_press","trial_type","trial_index","time_elapsed","internal_node_id","exp_id","Time","year","month","date","hour","minute","seconds","id","age","Gender","Handedness","mood","fresh","hunger","H_since_Sleep","H_since_Eat","responses","question_order","slider_start","response","test_part","face","word","correct_response","correct"
"1346","<p>Welcome to this experiment on daily rhythms and cognition.</p><p>First you will be asked some questions about yourself.</p><p>Then a short experiment will measure your response time.</p><p>Take the test at different times of the day/night.</p><p>The test is anonymous, but comparing your data across time is important.</p><p>Therefore, please make up and remember a personal ID (two letters+ two numbers).</p><p>Use this ID whenever taking the test.</p><p><strong>Press any key to begin.</strong></p>","32","html-keyboard-response","0","1348","0.0-0.0","29qje8","Tue Feb 16 2021 10:14:31 GMT+0100 (CET)","2021","2","16","10","14","31","mf13","22","female","right","64","42","100","1","0","","","","","","","","",""
"1566","","","survey-text","1","2925","0.0-1.0","29qje8","Tue Feb 16 2021 10:14:31 GMT+0100 (CET)","2021","2","16","10","14","31","mf13","22","female","right","64","42","100","1","0","{""Q0"":""mf13""}","","","","","","","",""
"1390","","","survey-text","2","4322","0.0-2.0","29qje8","Tue Feb 16 2021 10:14:31 GMT+0100 (CET)","2021","2","16","10","14","31","mf13","22","female","right","64","42","100","1","0","{""Q0"":""22""}","","","","","","","",""
"2581","","","survey-multi-select","3","6906","0.0-3.0","29qje8","Tue Feb 16 2021 10:14:31 GMT+0100 (CET)","2021","2","16","10","14","31","mf13","22","female","right","64","42","100","1","0","{""Gender"":[""female""],""Hand"":[""right""]}","[0,1]","","","","","","",""
"2388","<p>How Sad/Angry or Happy are you right now?</p>","","html-slider-response","4","9296","0.0-4.0","29qje8","Tue Feb 16 2021 10:14:31 GMT+0100 (CET)","2021","2","16","10","14","31","mf13","22","female","right","64","42","100","1","0","","","50","64","","","","",""
"3022","<p>How Tired/Sleepy/Distracted or Fresh/Awake/Alert are you right now?</p>","","html-slider-response","5","12320","0.0-5.0","29qje8","Tue Feb 16 2021 10:14:31 GMT+0100 (CET)","2021","2","16","10","14","31","mf13","22","female","right","64","42","100","1","0","","","50","42","","","","",""
"2860","<p>How Hungry or Satiated are you right now?</p>","","html-slider-response","6","15181","0.0-6.0","29qje8","Tue Feb 16 2021 10:14:31 GMT+0100 (CET)","2021","2","16","10","14","31","mf13","22","female","right","64","42","100","1","0","","","50","100","","","","",""
"6294","","","survey-multi-select","7","21491","0.0-7.0","29qje8","Tue Feb 16 2021 10:14:31 GMT+0100 (CET)","2021","2","16","10","14","31","mf13","22","female","right","64","42","100","1","0","{""Sleep"":[""1""],""Eat"":[""0""]}","[0,1]","","","","","","",""
"1829","<p>In this experiment, a face and a word will appear in the center of the screen.</p><p>If the face is <strong>happy</strong>, press the letter <strong>H</strong> with <strong>right</strong> index finger.</p><p>If the face is <strong>fearful</strong>, press the letter <strong>F</strong> with <strong>left</strong> index finger.</p><p><strong>Ignore the written words</strong>. Respond as fast as possible while being correct. </p><div style='width: 900px;'><div style='float: left;'><img src='img/stimuli_stroop_happy.png'></img><p class='small'><strong>Press the H key for happy faces</strong></p></div><div class='float: right;'><img src='img/stimuli_stroop_fear.png'></img><p class='small'><strong>Press the F key for faces with fear</strong></p></div></div><p>If the screen turns blank, press <strong>SPACE</strong></p><p><strong>Press any key to begin.</strong></p>","32","html-keyboard-response","8","23323","0.0-8.0","29qje8","Tue Feb 16 2021 10:14:31 GMT+0100 (CET)","2021","2","16","10","14","31","mf13","22","female","right","64","42","100","1","0","","","","","","","","",""
"null","<div style=""font-size:60px;"">+</div>","null","html-keyboard-response","9","27079","0.0-9.0-0.0","29qje8","Tue Feb 16 2021 10:14:31 GMT+0100 (CET)","2021","2","16","10","14","31","mf13","22","female","right","64","42","100","1","0","","","","","fixation","","","",""
"538","img/image_stim_f.png","70","image-keyboard-response","10","27624","0.0-9.0-1.0","29qje8","Tue Feb 16 2021 10:14:31 GMT+0100 (CET)","2021","2","16","10","14","31","mf13","22","female","right","64","42","100","1","0","","","","","test","fear","fear","f","true"
"null","<div style=""font-size:60px;"">+</div>","null","html-keyboard-response","11","27880","0.0-9.0-0.1","29qje8","Tue Feb 16 2021 10:14:31 GMT+0100 (CET)","2021","2","16","10","14","31","mf13","22","female","right","64","42","100","1","0","","","","","fixation","","","",""
"477","img/image_stim_h_stroop.png","72","image-keyboard-response","12","28359","0.0-9.0-1.1","29qje8","Tue Feb 16 2021 10:14:31 GMT+0100 (CET)","2021","2","16","10","14","31","mf13","22","female","right","64","42","100","1","0","","","","","test","happy","fear","h","true"
"null","<div style=""font-size:60px;"">+</div>","null","html-keyboard-response","13","30363","0.0-9.0-0.2","29qje8","Tue Feb 16 2021 10:14:31 GMT+0100 (CET)","2021","2","16","10","14","31","mf13","22","female","right","64","42","100","1","0","","","","","fixation","","","",""
"394","img/image_stim_h.png","72","image-keyboard-response","14","30759","0.0-9.0-1.2","29qje8","Tue Feb 16 2021 10:14:31 GMT+0100 (CET)","2021","2","16","10","14","31","mf13","22","female","right","64","42","100","1","0","","","","","test","happy","happy","h","true"
"null","<div style=""font-size:60px;"">+</div>","null","html-keyboard-response","15","31763","0.0-9.0-0.3","29qje8","Tue Feb 16 2021 10:14:31 GMT+0100 (CET)","2021","2","16","10","14","31","mf13","22","female","right","64","42","100","1","0","","","","","fixation","","","",""
"439","img/image_stim_f_stroop.png","70","image-keyboard-response","16","32204","0.0-9.0-1.3","29qje8","Tue Feb 16 2021 10:14:31 GMT+0100 (CET)","2021","2","16","10","14","31","mf13","22","female","right","64","42","100","1","0","","","","","test","fear","happy","f","true"
"null","<div style=""font-size:60px;"">+</div>","null","html-keyboard-response","17","34208","0.0-9.0-0.4","29qje8","Tue Feb 16 2021 10:14:31 GMT+0100 (CET)","2021","2","16","10","14","31","mf13","22","female","right","64","42","100","1","0","","","","","fixation","","","",""
"460","img/image_stim_f.png","70","image-keyboard-response","18","34670","0.0-9.0-1.4","29qje8","Tue Feb 16 2021 10:14:31 GMT+0100 (CET)","2021","2","16","10","14","31","mf13","22","female","right","64","42","100","1","0","","","","","test","fear","fear","f","true"
"null","<div style=""font-size:60px;"">+</div>","null","html-keyboard-response","19","35424","0.0-9.0-0.5","29qje8","Tue Feb 16 2021 10:14:31 GMT+0100 (CET)","2021","2","16","10","14","31","mf13","22","female","right","64","42","100","1","0","","","","","fixation","","","",""
"475","img/image_stim_h.png","72","image-keyboard-response","20","35901","0.0-9.0-1.5","29qje8","Tue Feb 16 2021 10:14:31 GMT+0100 (CET)","2021","2","16","10","14","31","mf13","22","female","right","64","42","100","1","0","","","","","test","happy","happy","h","true"
"null","<div style=""font-size:60px;"">+</div>","null","html-keyboard-response","21","37405","0.0-9.0-0.6","29qje8","Tue Feb 16 2021 10:14:31 GMT+0100 (CET)","2021","2","16","10","14","31","mf13","22","female","right","64","42","100","1","0","","","","","fixation","","","",""
"442","img/image_stim_f_stroop.png","70","image-keyboard-response","22","37849","0.0-9.0-1.6","29qje8","Tue Feb 16 2021 10:14:31 GMT+0100 (CET)","2021","2","16","10","14","31","mf13","22","female","right","64","42","100","1","0","","","","","test","fear","happy","f","true"
"null","<div style=""font-size:60px;"">+</div>","null","html-keyboard-response","23","38604","0.0-9.0-0.7","29qje8","Tue Feb 16 2021 10:14:31 GMT+0100 (CET)","2021","2","16","10","14","31","mf13","22","female","right","64","42","100","1","0","","","","","fixation","","","",""
"550","img/image_stim_h_stroop.png","72","image-keyboard-response","24","39156","0.0-9.0-1.7","29qje8","Tue Feb 16 2021 10:14:31 GMT+0100 (CET)","2021","2","16","10","14","31","mf13","22","female","right","64","42","100","1","0","","","","","test","happy","fear","h","true"
"null","<div style=""font-size:60px;"">+</div>","null","html-keyboard-response","25","39660","0.0-9.0-0.8","29qje8","Tue Feb 16 2021 10:14:31 GMT+0100 (CET)","2021","2","16","10","14","31","mf13","22","female","right","64","42","100","1","0","","","","","fixation","","","",""
"463","img/image_stim_h_stroop.png","72","image-keyboard-response","26","40124","0.0-9.0-1.8","29qje8","Tue Feb 16 2021 10:14:31 GMT+0100 (CET)","2021","2","16","10","14","31","mf13","22","female","right","64","42","100","1","0","","","","","test","happy","fear","h","true"
"null","<div style=""font-size:60px;"">+</div>","null","html-keyboard-response","27","41129","0.0-9.0-0.9","29qje8","Tue Feb 16 2021 10:14:31 GMT+0100 (CET)","2021","2","16","10","14","31","mf13","22","female","right","64","42","100","1","0","","","","","fixation","","","",""
"427","img/image_stim_f.png","70","image-keyboard-response","28","41558","0.0-9.0-1.9","29qje8","Tue Feb 16 2021 10:14:31 GMT+0100 (CET)","2021","2","16","10","14","31","mf13","22","female","right","64","42","100","1","0","","","","","test","fear","fear","f","true"
"null","<div style=""font-size:60px;"">+</div>","null","html-keyboard-response","29","43063","0.0-9.0-0.10","29qje8","Tue Feb 16 2021 10:14:31 GMT+0100 (CET)","2021","2","16","10","14","31","mf13","22","female","right","64","42","100","1","0","","","","","fixation","","","",""
"456","img/image_stim_f_stroop.png","70","image-keyboard-response","30","43521","0.0-9.0-1.10","29qje8","Tue Feb 16 2021 10:14:31 GMT+0100 (CET)","2021","2","16","10","14","31","mf13","22","female","right","64","42","100","1","0","","","","","test","fear","happy","f","true"
"null","<div style=""font-size:60px;"">+</div>","null","html-keyboard-response","31","44026","0.0-9.0-0.11","29qje8","Tue Feb 16 2021 10:14:31 GMT+0100 (CET)","2021","2","16","10","14","31","mf13","22","female","right","64","42","100","1","0","","","","","fixation","","","",""
"471","img/image_stim_h.png","72","image-keyboard-response","32","44499","0.0-9.0-1.11","29qje8","Tue Feb 16 2021 10:14:31 GMT+0100 (CET)","2021","2","16","10","14","31","mf13","22","female","right","64","42","100","1","0","","","","","test","happy","happy","h","true"
"null","<div style=""font-size:60px;"">+</div>","null","html-keyboard-response","33","46504","0.0-9.0-0.12","29qje8","Tue Feb 16 2021 10:14:31 GMT+0100 (CET)","2021","2","16","10","14","31","mf13","22","female","right","64","42","100","1","0","","","","","fixation","","","",""
"420","img/image_stim_h.png","72","image-keyboard-response","34","46926","0.0-9.0-1.12","29qje8","Tue Feb 16 2021 10:14:31 GMT+0100 (CET)","2021","2","16","10","14","31","mf13","22","female","right","64","42","100","1","0","","","","","test","happy","happy","h","true"
"null","<div style=""font-size:60px;"">+</div>","null","html-keyboard-response","35","48431","0.0-9.0-0.13","29qje8","Tue Feb 16 2021 10:14:31 GMT+0100 (CET)","2021","2","16","10","14","31","mf13","22","female","right","64","42","100","1","0","","","","","fixation","","","",""
"418","img/image_stim_f_stroop.png","70","image-keyboard-response","36","48851","0.0-9.0-1.13","29qje8","Tue Feb 16 2021 10:14:31 GMT+0100 (CET)","2021","2","16","10","14","31","mf13","22","female","right","64","42","100","1","0","","","","","test","fear","happy","f","true"
"null","<div style=""font-size:60px;"">+</div>","null","html-keyboard-response","37","50606","0.0-9.0-0.14","29qje8","Tue Feb 16 2021 10:14:31 GMT+0100 (CET)","2021","2","16","10","14","31","mf13","22","female","right","64","42","100","1","0","","","","","fixation","","","",""
"521","img/image_stim_h_stroop.png","72","image-keyboard-response","38","51129","0.0-9.0-1.14","29qje8","Tue Feb 16 2021 10:14:31 GMT+0100 (CET)","2021","2","16","10","14","31","mf13","22","female","right","64","42","100","1","0","","","","","test","happy","fear","h","true"
"null","<div style=""font-size:60px;"">+</div>","null","html-keyboard-response","39","51634","0.0-9.0-0.15","29qje8","Tue Feb 16 2021 10:14:31 GMT+0100 (CET)","2021","2","16","10","14","31","mf13","22","female","right","64","42","100","1","0","","","","","fixation","","","",""
"765.9999999999927","img/image_stim_f.png","70","image-keyboard-response","40","52402","0.0-9.0-1.15","29qje8","Tue Feb 16 2021 10:14:31 GMT+0100 (CET)","2021","2","16","10","14","31","mf13","22","female","right","64","42","100","1","0","","","","","test","fear","fear","f","true"
"null","<div style=""font-size:60px;"">+</div>","null","html-keyboard-response","41","53656","0.0-9.0-0.16","29qje8","Tue Feb 16 2021 10:14:31 GMT+0100 (CET)","2021","2","16","10","14","31","mf13","22","female","right","64","42","100","1","0","","","","","fixation","","","",""
"454","img/image_stim_h.png","72","image-keyboard-response","42","54113","0.0-9.0-1.16","29qje8","Tue Feb 16 2021 10:14:31 GMT+0100 (CET)","2021","2","16","10","14","31","mf13","22","female","right","64","42","100","1","0","","","","","test","happy","happy","h","true"
"null","<div style=""font-size:60px;"">+</div>","null","html-keyboard-response","43","54868","0.0-9.0-0.17","29qje8","Tue Feb 16 2021 10:14:31 GMT+0100 (CET)","2021","2","16","10","14","31","mf13","22","female","right","64","42","100","1","0","","","","","fixation","","","",""
"502","img/image_stim_f_stroop.png","70","image-keyboard-response","44","55372","0.0-9.0-1.17","29qje8","Tue Feb 16 2021 10:14:31 GMT+0100 (CET)","2021","2","16","10","14","31","mf13","22","female","right","64","42","100","1","0","","","","","test","fear","happy","f","true"
"null","<div style=""font-size:60px;"">+</div>","null","html-keyboard-response","45","56127","0.0-9.0-0.18","29qje8","Tue Feb 16 2021 10:14:31 GMT+0100 (CET)","2021","2","16","10","14","31","mf13","22","female","right","64","42","100","1","0","","","","","fixation","","","",""
"520","img/image_stim_h_stroop.png","72","image-keyboard-response","46","56649","0.0-9.0-1.18","29qje8","Tue Feb 16 2021 10:14:31 GMT+0100 (CET)","2021","2","16","10","14","31","mf13","22","female","right","64","42","100","1","0","","","","","test","happy","fear","h","true"
"null","<div style=""font-size:60px;"">+</div>","null","html-keyboard-response","47","58153","0.0-9.0-0.19","29qje8","Tue Feb 16 2021 10:14:31 GMT+0100 (CET)","2021","2","16","10","14","31","mf13","22","female","right","64","42","100","1","0","","","","","fixation","","","",""
"476","img/image_stim_f.png","70","image-keyboard-response","48","58631","0.0-9.0-1.19","29qje8","Tue Feb 16 2021 10:14:31 GMT+0100 (CET)","2021","2","16","10","14","31","mf13","22","female","right","64","42","100","1","0","","","","","test","fear","fear","f","true"
"null","<div style=""font-size:60px;"">+</div>","null","html-keyboard-response","49","59136","0.0-9.0-0.20","29qje8","Tue Feb 16 2021 10:14:31 GMT+0100 (CET)","2021","2","16","10","14","31","mf13","22","female","right","64","42","100","1","0","","","","","fixation","","","",""
"500","img/image_stim_f_stroop.png","72","image-keyboard-response","50","59638","0.0-9.0-1.20","29qje8","Tue Feb 16 2021 10:14:31 GMT+0100 (CET)","2021","2","16","10","14","31","mf13","22","female","right","64","42","100","1","0","","","","","test","fear","happy","f","false"
"null","<div style=""font-size:60px;"">+</div>","null","html-keyboard-response","51","60143","0.0-9.0-0.21","29qje8","Tue Feb 16 2021 10:14:31 GMT+0100 (CET)","2021","2","16","10","14","31","mf13","22","female","right","64","42","100","1","0","","","","","fixation","","","",""
"558","img/image_stim_f.png","70","image-keyboard-response","52","60703","0.0-9.0-1.21","29qje8","Tue Feb 16 2021 10:14:31 GMT+0100 (CET)","2021","2","16","10","14","31","mf13","22","female","right","64","42","100","1","0","","","","","test","fear","fear","f","true"
"null","<div style=""font-size:60px;"">+</div>","null","html-keyboard-response","53","62458","0.0-9.0-0.22","29qje8","Tue Feb 16 2021 10:14:31 GMT+0100 (CET)","2021","2","16","10","14","31","mf13","22","female","right","64","42","100","1","0","","","","","fixation","","","",""
"457","img/image_stim_h.png","72","image-keyboard-response","54","62917","0.0-9.0-1.22","29qje8","Tue Feb 16 2021 10:14:31 GMT+0100 (CET)","2021","2","16","10","14","31","mf13","22","female","right","64","42","100","1","0","","","","","test","happy","happy","h","true"
"null","<div style=""font-size:60px;"">+</div>","null","html-keyboard-response","55","63673","0.0-9.0-0.23","29qje8","Tue Feb 16 2021 10:14:31 GMT+0100 (CET)","2021","2","16","10","14","31","mf13","22","female","right","64","42","100","1","0","","","","","fixation","","","",""
"641","img/image_stim_h_stroop.png","72","image-keyboard-response","56","64316","0.0-9.0-1.23","29qje8","Tue Feb 16 2021 10:14:31 GMT+0100 (CET)","2021","2","16","10","14","31","mf13","22","female","right","64","42","100","1","0","","","","","test","happy","fear","h","true"
"null","<div style=""font-size:60px;"">+</div>","null","html-keyboard-response","57","66321","0.0-9.0-0.24","29qje8","Tue Feb 16 2021 10:14:31 GMT+0100 (CET)","2021","2","16","10","14","31","mf13","22","female","right","64","42","100","1","0","","","","","fixation","","","",""
"427","img/image_stim_f_stroop.png","70","image-keyboard-response","58","66750","0.0-9.0-1.24","29qje8","Tue Feb 16 2021 10:14:31 GMT+0100 (CET)","2021","2","16","10","14","31","mf13","22","female","right","64","42","100","1","0","","","","","test","fear","happy","f","true"
"null","<div style=""font-size:60px;"">+</div>","null","html-keyboard-response","59","68006","0.0-9.0-0.25","29qje8","Tue Feb 16 2021 10:14:31 GMT+0100 (CET)","2021","2","16","10","14","31","mf13","22","female","right","64","42","100","1","0","","","","","fixation","","","",""
"641","img/image_stim_h.png","72","image-keyboard-response","60","68649","0.0-9.0-1.25","29qje8","Tue Feb 16 2021 10:14:31 GMT+0100 (CET)","2021","2","16","10","14","31","mf13","22","female","right","64","42","100","1","0","","","","","test","happy","happy","h","true"
"null","<div style=""font-size:60px;"">+</div>","null","html-keyboard-response","61","69655","0.0-9.0-0.26","29qje8","Tue Feb 16 2021 10:14:31 GMT+0100 (CET)","2021","2","16","10","14","31","mf13","22","female","right","64","42","100","1","0","","","","","fixation","","","",""
"403","img/image_stim_h_stroop.png","72","image-keyboard-response","62","70060","0.0-9.0-1.26","29qje8","Tue Feb 16 2021 10:14:31 GMT+0100 (CET)","2021","2","16","10","14","31","mf13","22","female","right","64","42","100","1","0","","","","","test","happy","fear","h","true"
"null","<div style=""font-size:60px;"">+</div>","null","html-keyboard-response","63","71065","0.0-9.0-0.27","29qje8","Tue Feb 16 2021 10:14:31 GMT+0100 (CET)","2021","2","16","10","14","31","mf13","22","female","right","64","42","100","1","0","","","","","fixation","","","",""
"415.99999999998545","img/image_stim_f.png","70","image-keyboard-response","64","71483","0.0-9.0-1.27","29qje8","Tue Feb 16 2021 10:14:31 GMT+0100 (CET)","2021","2","16","10","14","31","mf13","22","female","right","64","42","100","1","0","","","","","test","fear","fear","f","true"
"null","<div style=""font-size:60px;"">+</div>","null","html-keyboard-response","65","72488","0.0-9.0-0.28","29qje8","Tue Feb 16 2021 10:14:31 GMT+0100 (CET)","2021","2","16","10","14","31","mf13","22","female","right","64","42","100","1","0","","","","","fixation","","","",""
"507","img/image_stim_f.png","70","image-keyboard-response","66","72997","0.0-9.0-1.28","29qje8","Tue Feb 16 2021 10:14:31 GMT+0100 (CET)","2021","2","16","10","14","31","mf13","22","female","right","64","42","100","1","0","","","","","test","fear","fear","f","true"
"null","<div style=""font-size:60px;"">+</div>","null","html-keyboard-response","67","75002","0.0-9.0-0.29","29qje8","Tue Feb 16 2021 10:14:31 GMT+0100 (CET)","2021","2","16","10","14","31","mf13","22","female","right","64","42","100","1","0","","","","","fixation","","","",""
"443","img/image_stim_h.png","72","image-keyboard-response","68","75447","0.0-9.0-1.29","29qje8","Tue Feb 16 2021 10:14:31 GMT+0100 (CET)","2021","2","16","10","14","31","mf13","22","female","right","64","42","100","1","0","","","","","test","happy","happy","h","true"
"null","<div style=""font-size:60px;"">+</div>","null","html-keyboard-response","69","76952","0.0-9.0-0.30","29qje8","Tue Feb 16 2021 10:14:31 GMT+0100 (CET)","2021","2","16","10","14","31","mf13","22","female","right","64","42","100","1","0","","","","","fixation","","","",""
"358","img/image_stim_h_stroop.png","72","image-keyboard-response","70","77312","0.0-9.0-1.30","29qje8","Tue Feb 16 2021 10:14:31 GMT+0100 (CET)","2021","2","16","10","14","31","mf13","22","female","right","64","42","100","1","0","","","","","test","happy","fear","h","true"
"null","<div style=""font-size:60px;"">+</div>","null","html-keyboard-response","71","78568","0.0-9.0-0.31","29qje8","Tue Feb 16 2021 10:14:31 GMT+0100 (CET)","2021","2","16","10","14","31","mf13","22","female","right","64","42","100","1","0","","","","","fixation","","","",""
"448","img/image_stim_f_stroop.png","70","image-keyboard-response","72","79017","0.0-9.0-1.31","29qje8","Tue Feb 16 2021 10:14:31 GMT+0100 (CET)","2021","2","16","10","14","31","mf13","22","female","right","64","42","100","1","0","","","","","test","fear","happy","f","true"
"null","<div style=""font-size:60px;"">+</div>","null","html-keyboard-response","73","80772","0.0-9.0-0.32","29qje8","Tue Feb 16 2021 10:14:31 GMT+0100 (CET)","2021","2","16","10","14","31","mf13","22","female","right","64","42","100","1","0","","","","","fixation","","","",""
"374","img/image_stim_f_stroop.png","70","image-keyboard-response","74","81148","0.0-9.0-1.32","29qje8","Tue Feb 16 2021 10:14:31 GMT+0100 (CET)","2021","2","16","10","14","31","mf13","22","female","right","64","42","100","1","0","","","","","test","fear","happy","f","true"
"null","<div style=""font-size:60px;"">+</div>","null","html-keyboard-response","75","82153","0.0-9.0-0.33","29qje8","Tue Feb 16 2021 10:14:31 GMT+0100 (CET)","2021","2","16","10","14","31","mf13","22","female","right","64","42","100","1","0","","","","","fixation","","","",""
"439","img/image_stim_h_stroop.png","72","image-keyboard-response","76","82595","0.0-9.0-1.33","29qje8","Tue Feb 16 2021 10:14:31 GMT+0100 (CET)","2021","2","16","10","14","31","mf13","22","female","right","64","42","100","1","0","","","","","test","happy","fear","h","true"
"null","<div style=""font-size:60px;"">+</div>","null","html-keyboard-response","77","83601","0.0-9.0-0.34","29qje8","Tue Feb 16 2021 10:14:31 GMT+0100 (CET)","2021","2","16","10","14","31","mf13","22","female","right","64","42","100","1","0","","","","","fixation","","","",""
"398","img/image_stim_h.png","72","image-keyboard-response","78","84001","0.0-9.0-1.34","29qje8","Tue Feb 16 2021 10:14:31 GMT+0100 (CET)","2021","2","16","10","14","31","mf13","22","female","right","64","42","100","1","0","","","","","test","happy","happy","h","true"
"null","<div style=""font-size:60px;"">+</div>","null","html-keyboard-response","79","85006","0.0-9.0-0.35","29qje8","Tue Feb 16 2021 10:14:31 GMT+0100 (CET)","2021","2","16","10","14","31","mf13","22","female","right","64","42","100","1","0","","","","","fixation","","","",""
"437.00000000001455","img/image_stim_f.png","70","image-keyboard-response","80","85445","0.0-9.0-1.35","29qje8","Tue Feb 16 2021 10:14:31 GMT+0100 (CET)","2021","2","16","10","14","31","mf13","22","female","right","64","42","100","1","0","","","","","test","fear","fear","f","true"
