"rt","stimulus","key_press","trial_type","trial_index","time_elapsed","internal_node_id","exp_id","Time","year","month","date","hour","minute","seconds","id","age","Gender","Handedness","mood","fresh","hunger","H_since_Sleep","H_since_Eat","responses","question_order","slider_start","response","test_part","face","word","correct_response","correct"
"7305.109999957494","<p>Welcome to this experiment on daily rhythms and cognition.</p><p>First you will be asked some questions about yourself.</p><p>Then a short experiment will measure your response time.</p><p>Take the test at different times of the day/night.</p><p>The test is anonymous, but comparing your data across time is important.</p><p>Therefore, please make up and remember a personal ID (two letters+ two numbers).</p><p>Use this ID whenever taking the test.</p><p><strong>Press any key to begin.</strong></p>","32","html-keyboard-response","0","7307","0.0-0.0","7qowcq","Wed Feb 17 2021 23:44:37 GMT+0100 (Central European Standard Time)","2021","2","17","23","44","37","nn96","24","male","left","34","20","39","17","4","","","","","","","","",""
"3730.184999993071","","","survey-text","1","11043","0.0-1.0","7qowcq","Wed Feb 17 2021 23:44:37 GMT+0100 (Central European Standard Time)","2021","2","17","23","44","37","nn96","24","male","left","34","20","39","17","4","{""Q0"":""nn96""}","","","","","","","",""
"1763.4600000455976","","","survey-text","2","12810","0.0-2.0","7qowcq","Wed Feb 17 2021 23:44:37 GMT+0100 (Central European Standard Time)","2021","2","17","23","44","37","nn96","24","male","left","34","20","39","17","4","{""Q0"":""24""}","","","","","","","",""
"4244.184999959543","","","survey-multi-select","3","17058","0.0-3.0","7qowcq","Wed Feb 17 2021 23:44:37 GMT+0100 (Central European Standard Time)","2021","2","17","23","44","37","nn96","24","male","left","34","20","39","17","4","{""Gender"":[""male""],""Hand"":[""left""]}","[0,1]","","","","","","",""
"16023.9049999509","<p>How Sad/Angry or Happy are you right now?</p>","","html-slider-response","4","33084","0.0-4.0","7qowcq","Wed Feb 17 2021 23:44:37 GMT+0100 (Central European Standard Time)","2021","2","17","23","44","37","nn96","24","male","left","34","20","39","17","4","","","50","34","","","","",""
"4548.754999996163","<p>How Tired/Sleepy/Distracted or Fresh/Awake/Alert are you right now?</p>","","html-slider-response","5","37634","0.0-5.0","7qowcq","Wed Feb 17 2021 23:44:37 GMT+0100 (Central European Standard Time)","2021","2","17","23","44","37","nn96","24","male","left","34","20","39","17","4","","","50","20","","","","",""
"4328.419999917969","<p>How Hungry or Satiated are you right now?</p>","","html-slider-response","6","41964","0.0-6.0","7qowcq","Wed Feb 17 2021 23:44:37 GMT+0100 (Central European Standard Time)","2021","2","17","23","44","37","nn96","24","male","left","34","20","39","17","4","","","50","39","","","","",""
"22723.800000036135","","","survey-multi-select","7","64707","0.0-7.0","7qowcq","Wed Feb 17 2021 23:44:37 GMT+0100 (Central European Standard Time)","2021","2","17","23","44","37","nn96","24","male","left","34","20","39","17","4","{""Sleep"":[""17""],""Eat"":[""4""]}","[0,1]","","","","","","",""
"3804.0700000710785","<p>In this experiment, a face and a word will appear in the center of the screen.</p><p>If the face is <strong>happy</strong>, press the letter <strong>H</strong> with <strong>right</strong> index finger.</p><p>If the face is <strong>fearful</strong>, press the letter <strong>F</strong> with <strong>left</strong> index finger.</p><p><strong>Ignore the written words</strong>. Respond as fast as possible while being correct. </p><div style='width: 900px;'><div style='float: left;'><img src='img/stimuli_stroop_happy.png'></img><p class='small'><strong>Press the H key for happy faces</strong></p></div><div class='float: right;'><img src='img/stimuli_stroop_fear.png'></img><p class='small'><strong>Press the F key for faces with fear</strong></p></div></div><p>If the screen turns blank, press <strong>SPACE</strong></p><p><strong>Press any key to begin.</strong></p>","32","html-keyboard-response","8","68512","0.0-8.0","7qowcq","Wed Feb 17 2021 23:44:37 GMT+0100 (Central European Standard Time)","2021","2","17","23","44","37","nn96","24","male","left","34","20","39","17","4","","","","","","","","",""
"null","<div style=""font-size:60px;"">+</div>","null","html-keyboard-response","9","71768","0.0-9.0-0.0","7qowcq","Wed Feb 17 2021 23:44:37 GMT+0100 (Central European Standard Time)","2021","2","17","23","44","37","nn96","24","male","left","34","20","39","17","4","","","","","fixation","","","",""
"732.990000047721","img/image_stim_f.png","70","image-keyboard-response","10","72512","0.0-9.0-1.0","7qowcq","Wed Feb 17 2021 23:44:37 GMT+0100 (Central European Standard Time)","2021","2","17","23","44","37","nn96","24","male","left","34","20","39","17","4","","","","","test","fear","fear","f","true"
"null","<div style=""font-size:60px;"">+</div>","null","html-keyboard-response","11","74027","0.0-9.0-0.1","7qowcq","Wed Feb 17 2021 23:44:37 GMT+0100 (Central European Standard Time)","2021","2","17","23","44","37","nn96","24","male","left","34","20","39","17","4","","","","","fixation","","","",""
"396.55999990645796","img/image_stim_h.png","72","image-keyboard-response","12","74425","0.0-9.0-1.1","7qowcq","Wed Feb 17 2021 23:44:37 GMT+0100 (Central European Standard Time)","2021","2","17","23","44","37","nn96","24","male","left","34","20","39","17","4","","","","","test","happy","happy","h","true"
"null","<div style=""font-size:60px;"">+</div>","null","html-keyboard-response","13","74927","0.0-9.0-0.2","7qowcq","Wed Feb 17 2021 23:44:37 GMT+0100 (Central European Standard Time)","2021","2","17","23","44","37","nn96","24","male","left","34","20","39","17","4","","","","","fixation","","","",""
"463.84999994188547","img/image_stim_f_stroop.png","70","image-keyboard-response","14","75392","0.0-9.0-1.2","7qowcq","Wed Feb 17 2021 23:44:37 GMT+0100 (Central European Standard Time)","2021","2","17","23","44","37","nn96","24","male","left","34","20","39","17","4","","","","","test","fear","happy","f","true"
"null","<div style=""font-size:60px;"">+</div>","null","html-keyboard-response","15","76148","0.0-9.0-0.3","7qowcq","Wed Feb 17 2021 23:44:37 GMT+0100 (Central European Standard Time)","2021","2","17","23","44","37","nn96","24","male","left","34","20","39","17","4","","","","","fixation","","","",""
"506.03499996941537","img/image_stim_h_stroop.png","72","image-keyboard-response","16","76656","0.0-9.0-1.3","7qowcq","Wed Feb 17 2021 23:44:37 GMT+0100 (Central European Standard Time)","2021","2","17","23","44","37","nn96","24","male","left","34","20","39","17","4","","","","","test","happy","fear","h","true"
"null","<div style=""font-size:60px;"">+</div>","null","html-keyboard-response","17","77158","0.0-9.0-0.4","7qowcq","Wed Feb 17 2021 23:44:37 GMT+0100 (Central European Standard Time)","2021","2","17","23","44","37","nn96","24","male","left","34","20","39","17","4","","","","","fixation","","","",""
"496.48999993223697","img/image_stim_f_stroop.png","70","image-keyboard-response","18","77656","0.0-9.0-1.4","7qowcq","Wed Feb 17 2021 23:44:37 GMT+0100 (Central European Standard Time)","2021","2","17","23","44","37","nn96","24","male","left","34","20","39","17","4","","","","","test","fear","happy","f","true"
"null","<div style=""font-size:60px;"">+</div>","null","html-keyboard-response","19","79661","0.0-9.0-0.5","7qowcq","Wed Feb 17 2021 23:44:37 GMT+0100 (Central European Standard Time)","2021","2","17","23","44","37","nn96","24","male","left","34","20","39","17","4","","","","","fixation","","","",""
"449.86499997321516","img/image_stim_h_stroop.png","72","image-keyboard-response","20","80112","0.0-9.0-1.5","7qowcq","Wed Feb 17 2021 23:44:37 GMT+0100 (Central European Standard Time)","2021","2","17","23","44","37","nn96","24","male","left","34","20","39","17","4","","","","","test","happy","fear","h","true"
"null","<div style=""font-size:60px;"">+</div>","null","html-keyboard-response","21","81119","0.0-9.0-0.6","7qowcq","Wed Feb 17 2021 23:44:37 GMT+0100 (Central European Standard Time)","2021","2","17","23","44","37","nn96","24","male","left","34","20","39","17","4","","","","","fixation","","","",""
"519.3149999249727","img/image_stim_f.png","70","image-keyboard-response","22","81640","0.0-9.0-1.6","7qowcq","Wed Feb 17 2021 23:44:37 GMT+0100 (Central European Standard Time)","2021","2","17","23","44","37","nn96","24","male","left","34","20","39","17","4","","","","","test","fear","fear","f","true"
"null","<div style=""font-size:60px;"">+</div>","null","html-keyboard-response","23","83146","0.0-9.0-0.7","7qowcq","Wed Feb 17 2021 23:44:37 GMT+0100 (Central European Standard Time)","2021","2","17","23","44","37","nn96","24","male","left","34","20","39","17","4","","","","","fixation","","","",""
"398.77500000875443","img/image_stim_h.png","70","image-keyboard-response","24","83546","0.0-9.0-1.7","7qowcq","Wed Feb 17 2021 23:44:37 GMT+0100 (Central European Standard Time)","2021","2","17","23","44","37","nn96","24","male","left","34","20","39","17","4","","","","","test","happy","happy","h","false"
"null","<div style=""font-size:60px;"">+</div>","null","html-keyboard-response","25","84800","0.0-9.0-0.8","7qowcq","Wed Feb 17 2021 23:44:37 GMT+0100 (Central European Standard Time)","2021","2","17","23","44","37","nn96","24","male","left","34","20","39","17","4","","","","","fixation","","","",""
"441.7550000362098","img/image_stim_h.png","72","image-keyboard-response","26","85243","0.0-9.0-1.8","7qowcq","Wed Feb 17 2021 23:44:37 GMT+0100 (Central European Standard Time)","2021","2","17","23","44","37","nn96","24","male","left","34","20","39","17","4","","","","","test","happy","happy","h","true"
"null","<div style=""font-size:60px;"">+</div>","null","html-keyboard-response","27","85495","0.0-9.0-0.9","7qowcq","Wed Feb 17 2021 23:44:37 GMT+0100 (Central European Standard Time)","2021","2","17","23","44","37","nn96","24","male","left","34","20","39","17","4","","","","","fixation","","","",""
"494.91499993018806","img/image_stim_f_stroop.png","70","image-keyboard-response","28","85992","0.0-9.0-1.9","7qowcq","Wed Feb 17 2021 23:44:37 GMT+0100 (Central European Standard Time)","2021","2","17","23","44","37","nn96","24","male","left","34","20","39","17","4","","","","","test","fear","happy","f","true"
"null","<div style=""font-size:60px;"">+</div>","null","html-keyboard-response","29","87244","0.0-9.0-0.10","7qowcq","Wed Feb 17 2021 23:44:37 GMT+0100 (Central European Standard Time)","2021","2","17","23","44","37","nn96","24","male","left","34","20","39","17","4","","","","","fixation","","","",""
"602.0950000965968","img/image_stim_h_stroop.png","72","image-keyboard-response","30","87847","0.0-9.0-1.10","7qowcq","Wed Feb 17 2021 23:44:37 GMT+0100 (Central European Standard Time)","2021","2","17","23","44","37","nn96","24","male","left","34","20","39","17","4","","","","","test","happy","fear","h","true"
"null","<div style=""font-size:60px;"">+</div>","null","html-keyboard-response","31","89600","0.0-9.0-0.11","7qowcq","Wed Feb 17 2021 23:44:37 GMT+0100 (Central European Standard Time)","2021","2","17","23","44","37","nn96","24","male","left","34","20","39","17","4","","","","","fixation","","","",""
"461.90499991644174","img/image_stim_f.png","70","image-keyboard-response","32","90063","0.0-9.0-1.11","7qowcq","Wed Feb 17 2021 23:44:37 GMT+0100 (Central European Standard Time)","2021","2","17","23","44","37","nn96","24","male","left","34","20","39","17","4","","","","","test","fear","fear","f","true"
"null","<div style=""font-size:60px;"">+</div>","null","html-keyboard-response","33","90321","0.0-9.0-0.12","7qowcq","Wed Feb 17 2021 23:44:37 GMT+0100 (Central European Standard Time)","2021","2","17","23","44","37","nn96","24","male","left","34","20","39","17","4","","","","","fixation","","","",""
"519.994999980554","img/image_stim_h_stroop.png","70","image-keyboard-response","34","90842","0.0-9.0-1.12","7qowcq","Wed Feb 17 2021 23:44:37 GMT+0100 (Central European Standard Time)","2021","2","17","23","44","37","nn96","24","male","left","34","20","39","17","4","","","","","test","happy","fear","h","false"
"null","<div style=""font-size:60px;"">+</div>","null","html-keyboard-response","35","91846","0.0-9.0-0.13","7qowcq","Wed Feb 17 2021 23:44:37 GMT+0100 (Central European Standard Time)","2021","2","17","23","44","37","nn96","24","male","left","34","20","39","17","4","","","","","fixation","","","",""
"528.2100000185892","img/image_stim_f_stroop.png","70","image-keyboard-response","36","92375","0.0-9.0-1.13","7qowcq","Wed Feb 17 2021 23:44:37 GMT+0100 (Central European Standard Time)","2021","2","17","23","44","37","nn96","24","male","left","34","20","39","17","4","","","","","test","fear","happy","f","true"
"null","<div style=""font-size:60px;"">+</div>","null","html-keyboard-response","37","92878","0.0-9.0-0.14","7qowcq","Wed Feb 17 2021 23:44:37 GMT+0100 (Central European Standard Time)","2021","2","17","23","44","37","nn96","24","male","left","34","20","39","17","4","","","","","fixation","","","",""
"455.99499996751547","img/image_stim_h.png","72","image-keyboard-response","38","93335","0.0-9.0-1.14","7qowcq","Wed Feb 17 2021 23:44:37 GMT+0100 (Central European Standard Time)","2021","2","17","23","44","37","nn96","24","male","left","34","20","39","17","4","","","","","test","happy","happy","h","true"
"null","<div style=""font-size:60px;"">+</div>","null","html-keyboard-response","39","94843","0.0-9.0-0.15","7qowcq","Wed Feb 17 2021 23:44:37 GMT+0100 (Central European Standard Time)","2021","2","17","23","44","37","nn96","24","male","left","34","20","39","17","4","","","","","fixation","","","",""
"459.6550000132993","img/image_stim_f.png","70","image-keyboard-response","40","95304","0.0-9.0-1.15","7qowcq","Wed Feb 17 2021 23:44:37 GMT+0100 (Central European Standard Time)","2021","2","17","23","44","37","nn96","24","male","left","34","20","39","17","4","","","","","test","fear","fear","f","true"
"null","<div style=""font-size:60px;"">+</div>","null","html-keyboard-response","41","95558","0.0-9.0-0.16","7qowcq","Wed Feb 17 2021 23:44:37 GMT+0100 (Central European Standard Time)","2021","2","17","23","44","37","nn96","24","male","left","34","20","39","17","4","","","","","fixation","","","",""
"519.7499999776483","img/image_stim_h.png","72","image-keyboard-response","42","96079","0.0-9.0-1.16","7qowcq","Wed Feb 17 2021 23:44:37 GMT+0100 (Central European Standard Time)","2021","2","17","23","44","37","nn96","24","male","left","34","20","39","17","4","","","","","test","happy","happy","h","true"
"null","<div style=""font-size:60px;"">+</div>","null","html-keyboard-response","43","96832","0.0-9.0-0.17","7qowcq","Wed Feb 17 2021 23:44:37 GMT+0100 (Central European Standard Time)","2021","2","17","23","44","37","nn96","24","male","left","34","20","39","17","4","","","","","fixation","","","",""
"461.8349999655038","img/image_stim_f_stroop.png","70","image-keyboard-response","44","97295","0.0-9.0-1.17","7qowcq","Wed Feb 17 2021 23:44:37 GMT+0100 (Central European Standard Time)","2021","2","17","23","44","37","nn96","24","male","left","34","20","39","17","4","","","","","test","fear","happy","f","true"
"null","<div style=""font-size:60px;"">+</div>","null","html-keyboard-response","45","97552","0.0-9.0-0.18","7qowcq","Wed Feb 17 2021 23:44:37 GMT+0100 (Central European Standard Time)","2021","2","17","23","44","37","nn96","24","male","left","34","20","39","17","4","","","","","fixation","","","",""
"784.2649999074638","img/image_stim_f.png","70","image-keyboard-response","46","98338","0.0-9.0-1.18","7qowcq","Wed Feb 17 2021 23:44:37 GMT+0100 (Central European Standard Time)","2021","2","17","23","44","37","nn96","24","male","left","34","20","39","17","4","","","","","test","fear","fear","f","true"
"null","<div style=""font-size:60px;"">+</div>","null","html-keyboard-response","47","98841","0.0-9.0-0.19","7qowcq","Wed Feb 17 2021 23:44:37 GMT+0100 (Central European Standard Time)","2021","2","17","23","44","37","nn96","24","male","left","34","20","39","17","4","","","","","fixation","","","",""
"508.2249999977648","img/image_stim_h_stroop.png","72","image-keyboard-response","48","99351","0.0-9.0-1.19","7qowcq","Wed Feb 17 2021 23:44:37 GMT+0100 (Central European Standard Time)","2021","2","17","23","44","37","nn96","24","male","left","34","20","39","17","4","","","","","test","happy","fear","h","true"
"null","<div style=""font-size:60px;"">+</div>","null","html-keyboard-response","49","99855","0.0-9.0-0.20","7qowcq","Wed Feb 17 2021 23:44:37 GMT+0100 (Central European Standard Time)","2021","2","17","23","44","37","nn96","24","male","left","34","20","39","17","4","","","","","fixation","","","",""
"464.6450000582263","img/image_stim_h.png","72","image-keyboard-response","50","100321","0.0-9.0-1.20","7qowcq","Wed Feb 17 2021 23:44:37 GMT+0100 (Central European Standard Time)","2021","2","17","23","44","37","nn96","24","male","left","34","20","39","17","4","","","","","test","happy","happy","h","true"
"null","<div style=""font-size:60px;"">+</div>","null","html-keyboard-response","51","100575","0.0-9.0-0.21","7qowcq","Wed Feb 17 2021 23:44:37 GMT+0100 (Central European Standard Time)","2021","2","17","23","44","37","nn96","24","male","left","34","20","39","17","4","","","","","fixation","","","",""
"479.10500003490597","img/image_stim_h_stroop.png","72","image-keyboard-response","52","101055","0.0-9.0-1.21","7qowcq","Wed Feb 17 2021 23:44:37 GMT+0100 (Central European Standard Time)","2021","2","17","23","44","37","nn96","24","male","left","34","20","39","17","4","","","","","test","happy","fear","h","true"
"null","<div style=""font-size:60px;"">+</div>","null","html-keyboard-response","53","101310","0.0-9.0-0.22","7qowcq","Wed Feb 17 2021 23:44:37 GMT+0100 (Central European Standard Time)","2021","2","17","23","44","37","nn96","24","male","left","34","20","39","17","4","","","","","fixation","","","",""
"447.4900000495836","img/image_stim_f_stroop.png","70","image-keyboard-response","54","101759","0.0-9.0-1.22","7qowcq","Wed Feb 17 2021 23:44:37 GMT+0100 (Central European Standard Time)","2021","2","17","23","44","37","nn96","24","male","left","34","20","39","17","4","","","","","test","fear","happy","f","true"
"null","<div style=""font-size:60px;"">+</div>","null","html-keyboard-response","55","102516","0.0-9.0-0.23","7qowcq","Wed Feb 17 2021 23:44:37 GMT+0100 (Central European Standard Time)","2021","2","17","23","44","37","nn96","24","male","left","34","20","39","17","4","","","","","fixation","","","",""
"545.4999998910353","img/image_stim_f.png","72","image-keyboard-response","56","103063","0.0-9.0-1.23","7qowcq","Wed Feb 17 2021 23:44:37 GMT+0100 (Central European Standard Time)","2021","2","17","23","44","37","nn96","24","male","left","34","20","39","17","4","","","","","test","fear","fear","f","false"
"null","<div style=""font-size:60px;"">+</div>","null","html-keyboard-response","57","103567","0.0-9.0-0.24","7qowcq","Wed Feb 17 2021 23:44:37 GMT+0100 (Central European Standard Time)","2021","2","17","23","44","37","nn96","24","male","left","34","20","39","17","4","","","","","fixation","","","",""
"534.4399999594316","img/image_stim_f.png","70","image-keyboard-response","58","104103","0.0-9.0-1.24","7qowcq","Wed Feb 17 2021 23:44:37 GMT+0100 (Central European Standard Time)","2021","2","17","23","44","37","nn96","24","male","left","34","20","39","17","4","","","","","test","fear","fear","f","true"
"null","<div style=""font-size:60px;"">+</div>","null","html-keyboard-response","59","104607","0.0-9.0-0.25","7qowcq","Wed Feb 17 2021 23:44:37 GMT+0100 (Central European Standard Time)","2021","2","17","23","44","37","nn96","24","male","left","34","20","39","17","4","","","","","fixation","","","",""
"560.9249999979511","img/image_stim_f_stroop.png","70","image-keyboard-response","60","105169","0.0-9.0-1.25","7qowcq","Wed Feb 17 2021 23:44:37 GMT+0100 (Central European Standard Time)","2021","2","17","23","44","37","nn96","24","male","left","34","20","39","17","4","","","","","test","fear","happy","f","true"
"null","<div style=""font-size:60px;"">+</div>","null","html-keyboard-response","61","106673","0.0-9.0-0.26","7qowcq","Wed Feb 17 2021 23:44:37 GMT+0100 (Central European Standard Time)","2021","2","17","23","44","37","nn96","24","male","left","34","20","39","17","4","","","","","fixation","","","",""
"493.52499993983656","img/image_stim_h.png","72","image-keyboard-response","62","107168","0.0-9.0-1.26","7qowcq","Wed Feb 17 2021 23:44:37 GMT+0100 (Central European Standard Time)","2021","2","17","23","44","37","nn96","24","male","left","34","20","39","17","4","","","","","test","happy","happy","h","true"
"null","<div style=""font-size:60px;"">+</div>","null","html-keyboard-response","63","109174","0.0-9.0-0.27","7qowcq","Wed Feb 17 2021 23:44:37 GMT+0100 (Central European Standard Time)","2021","2","17","23","44","37","nn96","24","male","left","34","20","39","17","4","","","","","fixation","","","",""
"482.3349999496713","img/image_stim_h_stroop.png","72","image-keyboard-response","64","109657","0.0-9.0-1.27","7qowcq","Wed Feb 17 2021 23:44:37 GMT+0100 (Central European Standard Time)","2021","2","17","23","44","37","nn96","24","male","left","34","20","39","17","4","","","","","test","happy","fear","h","true"
"null","<div style=""font-size:60px;"">+</div>","null","html-keyboard-response","65","110915","0.0-9.0-0.28","7qowcq","Wed Feb 17 2021 23:44:37 GMT+0100 (Central European Standard Time)","2021","2","17","23","44","37","nn96","24","male","left","34","20","39","17","4","","","","","fixation","","","",""
"410.11499997694045","img/image_stim_f_stroop.png","70","image-keyboard-response","66","111327","0.0-9.0-1.28","7qowcq","Wed Feb 17 2021 23:44:37 GMT+0100 (Central European Standard Time)","2021","2","17","23","44","37","nn96","24","male","left","34","20","39","17","4","","","","","test","fear","happy","f","true"
"null","<div style=""font-size:60px;"">+</div>","null","html-keyboard-response","67","112085","0.0-9.0-0.29","7qowcq","Wed Feb 17 2021 23:44:37 GMT+0100 (Central European Standard Time)","2021","2","17","23","44","37","nn96","24","male","left","34","20","39","17","4","","","","","fixation","","","",""
"471.95499995723367","img/image_stim_h.png","72","image-keyboard-response","68","112559","0.0-9.0-1.29","7qowcq","Wed Feb 17 2021 23:44:37 GMT+0100 (Central European Standard Time)","2021","2","17","23","44","37","nn96","24","male","left","34","20","39","17","4","","","","","test","happy","happy","h","true"
"null","<div style=""font-size:60px;"">+</div>","null","html-keyboard-response","69","113064","0.0-9.0-0.30","7qowcq","Wed Feb 17 2021 23:44:37 GMT+0100 (Central European Standard Time)","2021","2","17","23","44","37","nn96","24","male","left","34","20","39","17","4","","","","","fixation","","","",""
"444.97499999124557","img/image_stim_f.png","70","image-keyboard-response","70","113511","0.0-9.0-1.30","7qowcq","Wed Feb 17 2021 23:44:37 GMT+0100 (Central European Standard Time)","2021","2","17","23","44","37","nn96","24","male","left","34","20","39","17","4","","","","","test","fear","fear","f","true"
"null","<div style=""font-size:60px;"">+</div>","null","html-keyboard-response","71","114514","0.0-9.0-0.31","7qowcq","Wed Feb 17 2021 23:44:37 GMT+0100 (Central European Standard Time)","2021","2","17","23","44","37","nn96","24","male","left","34","20","39","17","4","","","","","fixation","","","",""
"451.3599999481812","img/image_stim_h_stroop.png","72","image-keyboard-response","72","114967","0.0-9.0-1.31","7qowcq","Wed Feb 17 2021 23:44:37 GMT+0100 (Central European Standard Time)","2021","2","17","23","44","37","nn96","24","male","left","34","20","39","17","4","","","","","test","happy","fear","h","true"
"null","<div style=""font-size:60px;"">+</div>","null","html-keyboard-response","73","116473","0.0-9.0-0.32","7qowcq","Wed Feb 17 2021 23:44:37 GMT+0100 (Central European Standard Time)","2021","2","17","23","44","37","nn96","24","male","left","34","20","39","17","4","","","","","fixation","","","",""
"470.6100000767037","img/image_stim_h.png","72","image-keyboard-response","74","116945","0.0-9.0-1.32","7qowcq","Wed Feb 17 2021 23:44:37 GMT+0100 (Central European Standard Time)","2021","2","17","23","44","37","nn96","24","male","left","34","20","39","17","4","","","","","test","happy","happy","h","true"
"null","<div style=""font-size:60px;"">+</div>","null","html-keyboard-response","75","118951","0.0-9.0-0.33","7qowcq","Wed Feb 17 2021 23:44:37 GMT+0100 (Central European Standard Time)","2021","2","17","23","44","37","nn96","24","male","left","34","20","39","17","4","","","","","fixation","","","",""
"454.1949999984354","img/image_stim_f_stroop.png","72","image-keyboard-response","76","119406","0.0-9.0-1.33","7qowcq","Wed Feb 17 2021 23:44:37 GMT+0100 (Central European Standard Time)","2021","2","17","23","44","37","nn96","24","male","left","34","20","39","17","4","","","","","test","fear","happy","f","false"
"null","<div style=""font-size:60px;"">+</div>","null","html-keyboard-response","77","120664","0.0-9.0-0.34","7qowcq","Wed Feb 17 2021 23:44:37 GMT+0100 (Central European Standard Time)","2021","2","17","23","44","37","nn96","24","male","left","34","20","39","17","4","","","","","fixation","","","",""
"471.4900000253692","img/image_stim_h_stroop.png","72","image-keyboard-response","78","121137","0.0-9.0-1.34","7qowcq","Wed Feb 17 2021 23:44:37 GMT+0100 (Central European Standard Time)","2021","2","17","23","44","37","nn96","24","male","left","34","20","39","17","4","","","","","test","happy","fear","h","true"
"null","<div style=""font-size:60px;"">+</div>","null","html-keyboard-response","79","121893","0.0-9.0-0.35","7qowcq","Wed Feb 17 2021 23:44:37 GMT+0100 (Central European Standard Time)","2021","2","17","23","44","37","nn96","24","male","left","34","20","39","17","4","","","","","fixation","","","",""
"432.1050000144169","img/image_stim_f.png","70","image-keyboard-response","80","122327","0.0-9.0-1.35","7qowcq","Wed Feb 17 2021 23:44:37 GMT+0100 (Central European Standard Time)","2021","2","17","23","44","37","nn96","24","male","left","34","20","39","17","4","","","","","test","fear","fear","f","true"
