"rt","stimulus","key_press","trial_type","trial_index","time_elapsed","internal_node_id","exp_id","Time","year","month","date","hour","minute","seconds","id","age","Gender","Handedness","mood","fresh","hunger","H_since_Sleep","H_since_Eat","responses","question_order","slider_start","response","test_part","face","word","correct_response","correct"
"2050","<p>Welcome to this experiment on daily rhythms and cognition.</p><p>First you will be asked some questions about yourself.</p><p>Then a short experiment will measure your response time.</p><p>Take the test at different times of the day/night.</p><p>The test is anonymous, but comparing your data across time is important.</p><p>Therefore, please make up and remember a personal ID (two letters+ two numbers).</p><p>Use this ID whenever taking the test.</p><p><strong>Press any key to begin.</strong></p>","32","html-keyboard-response","0","2053","0.0-0.0","cqjzb4","Thu Feb 10 2022 15:06:04 GMT+0100 (CET)","2022","2","10","15","6","4","mf21","21","female","right","100","24","13","6","5","","","","","","","","",""
"6585","","","survey-text","1","8663","0.0-1.0","cqjzb4","Thu Feb 10 2022 15:06:04 GMT+0100 (CET)","2022","2","10","15","6","4","mf21","21","female","right","100","24","13","6","5","{""Q0"":""mf21""}","","","","","","","",""
"1397.0000000000018","","","survey-text","2","10068","0.0-2.0","cqjzb4","Thu Feb 10 2022 15:06:04 GMT+0100 (CET)","2022","2","10","15","6","4","mf21","21","female","right","100","24","13","6","5","{""Q0"":""21""}","","","","","","","",""
"3765.000000000002","","","survey-multi-select","3","13836","0.0-3.0","cqjzb4","Thu Feb 10 2022 15:06:04 GMT+0100 (CET)","2022","2","10","15","6","4","mf21","21","female","right","100","24","13","6","5","{""Gender"":[""female""],""Hand"":[""right""]}","[0,1]","","","","","","",""
"2612","<p>How Sad/Angry or Happy are you right now?</p>","","html-slider-response","4","16449","0.0-4.0","cqjzb4","Thu Feb 10 2022 15:06:04 GMT+0100 (CET)","2022","2","10","15","6","4","mf21","21","female","right","100","24","13","6","5","","","50","100","","","","",""
"4285.000000000004","<p>How Tired/Sleepy/Distracted or Fresh/Awake/Alert are you right now?</p>","","html-slider-response","5","20735","0.0-5.0","cqjzb4","Thu Feb 10 2022 15:06:04 GMT+0100 (CET)","2022","2","10","15","6","4","mf21","21","female","right","100","24","13","6","5","","","50","24","","","","",""
"4276","<p>How Hungry or Satiated are you right now?</p>","","html-slider-response","6","25012","0.0-6.0","cqjzb4","Thu Feb 10 2022 15:06:04 GMT+0100 (CET)","2022","2","10","15","6","4","mf21","21","female","right","100","24","13","6","5","","","50","13","","","","",""
"12600","","","survey-multi-select","7","37622","0.0-7.0","cqjzb4","Thu Feb 10 2022 15:06:04 GMT+0100 (CET)","2022","2","10","15","6","4","mf21","21","female","right","100","24","13","6","5","{""Sleep"":[""6""],""Eat"":[""5""]}","[0,1]","","","","","","",""
"3456.0000000000073","<p>In this experiment, a face and a word will appear in the center of the screen.</p><p>If the face is <strong>happy</strong>, press the letter <strong>H</strong> with <strong>right</strong> index finger.</p><p>If the face is <strong>fearful</strong>, press the letter <strong>F</strong> with <strong>left</strong> index finger.</p><p><strong>Ignore the written words</strong>. Respond as fast as possible while being correct. </p><div style='width: 900px;'><div style='float: left;'><img src='img/stimuli_stroop_happy.png'></img><p class='small'><strong>Press the H key for happy faces</strong></p></div><div class='float: right;'><img src='img/stimuli_stroop_fear.png'></img><p class='small'><strong>Press the F key for faces with fear</strong></p></div></div><p>If the screen turns blank, press <strong>SPACE</strong></p><p><strong>Press any key to begin.</strong></p>","32","html-keyboard-response","8","41081","0.0-8.0","cqjzb4","Thu Feb 10 2022 15:06:04 GMT+0100 (CET)","2022","2","10","15","6","4","mf21","21","female","right","100","24","13","6","5","","","","","","","","",""
"null","<div style=""font-size:60px;"">+</div>","null","html-keyboard-response","9","43335","0.0-9.0-0.0","cqjzb4","Thu Feb 10 2022 15:06:04 GMT+0100 (CET)","2022","2","10","15","6","4","mf21","21","female","right","100","24","13","6","5","","","","","fixation","","","",""
"1019","img/image_stim_h_stroop.png","72","image-keyboard-response","10","44367","0.0-9.0-1.0","cqjzb4","Thu Feb 10 2022 15:06:04 GMT+0100 (CET)","2022","2","10","15","6","4","mf21","21","female","right","100","24","13","6","5","","","","","test","happy","fear","h","true"
"null","<div style=""font-size:60px;"">+</div>","null","html-keyboard-response","11","45625","0.0-9.0-0.1","cqjzb4","Thu Feb 10 2022 15:06:04 GMT+0100 (CET)","2022","2","10","15","6","4","mf21","21","female","right","100","24","13","6","5","","","","","fixation","","","",""
"436","img/image_stim_f.png","70","image-keyboard-response","12","46069","0.0-9.0-1.1","cqjzb4","Thu Feb 10 2022 15:06:04 GMT+0100 (CET)","2022","2","10","15","6","4","mf21","21","female","right","100","24","13","6","5","","","","","test","fear","fear","f","true"
"null","<div style=""font-size:60px;"">+</div>","null","html-keyboard-response","13","47075","0.0-9.0-0.2","cqjzb4","Thu Feb 10 2022 15:06:04 GMT+0100 (CET)","2022","2","10","15","6","4","mf21","21","female","right","100","24","13","6","5","","","","","fixation","","","",""
"526","img/image_stim_h.png","72","image-keyboard-response","14","47608","0.0-9.0-1.2","cqjzb4","Thu Feb 10 2022 15:06:04 GMT+0100 (CET)","2022","2","10","15","6","4","mf21","21","female","right","100","24","13","6","5","","","","","test","happy","happy","h","true"
"null","<div style=""font-size:60px;"">+</div>","null","html-keyboard-response","15","48614","0.0-9.0-0.3","cqjzb4","Thu Feb 10 2022 15:06:04 GMT+0100 (CET)","2022","2","10","15","6","4","mf21","21","female","right","100","24","13","6","5","","","","","fixation","","","",""
"455","img/image_stim_f_stroop.png","70","image-keyboard-response","16","49075","0.0-9.0-1.3","cqjzb4","Thu Feb 10 2022 15:06:04 GMT+0100 (CET)","2022","2","10","15","6","4","mf21","21","female","right","100","24","13","6","5","","","","","test","fear","happy","f","true"
"null","<div style=""font-size:60px;"">+</div>","null","html-keyboard-response","17","50331","0.0-9.0-0.4","cqjzb4","Thu Feb 10 2022 15:06:04 GMT+0100 (CET)","2022","2","10","15","6","4","mf21","21","female","right","100","24","13","6","5","","","","","fixation","","","",""
"433.9999999999927","img/image_stim_h_stroop.png","72","image-keyboard-response","18","50767","0.0-9.0-1.4","cqjzb4","Thu Feb 10 2022 15:06:04 GMT+0100 (CET)","2022","2","10","15","6","4","mf21","21","female","right","100","24","13","6","5","","","","","test","happy","fear","h","true"
"null","<div style=""font-size:60px;"">+</div>","null","html-keyboard-response","19","51773","0.0-9.0-0.5","cqjzb4","Thu Feb 10 2022 15:06:04 GMT+0100 (CET)","2022","2","10","15","6","4","mf21","21","female","right","100","24","13","6","5","","","","","fixation","","","",""
"468","img/image_stim_h.png","72","image-keyboard-response","20","52244","0.0-9.0-1.5","cqjzb4","Thu Feb 10 2022 15:06:04 GMT+0100 (CET)","2022","2","10","15","6","4","mf21","21","female","right","100","24","13","6","5","","","","","test","happy","happy","h","true"
"null","<div style=""font-size:60px;"">+</div>","null","html-keyboard-response","21","52499","0.0-9.0-0.6","cqjzb4","Thu Feb 10 2022 15:06:04 GMT+0100 (CET)","2022","2","10","15","6","4","mf21","21","female","right","100","24","13","6","5","","","","","fixation","","","",""
"639.0000000000073","img/image_stim_f_stroop.png","70","image-keyboard-response","22","53141","0.0-9.0-1.6","cqjzb4","Thu Feb 10 2022 15:06:04 GMT+0100 (CET)","2022","2","10","15","6","4","mf21","21","female","right","100","24","13","6","5","","","","","test","fear","happy","f","true"
"null","<div style=""font-size:60px;"">+</div>","null","html-keyboard-response","23","54648","0.0-9.0-0.7","cqjzb4","Thu Feb 10 2022 15:06:04 GMT+0100 (CET)","2022","2","10","15","6","4","mf21","21","female","right","100","24","13","6","5","","","","","fixation","","","",""
"668","img/image_stim_f.png","70","image-keyboard-response","24","55318","0.0-9.0-1.7","cqjzb4","Thu Feb 10 2022 15:06:04 GMT+0100 (CET)","2022","2","10","15","6","4","mf21","21","female","right","100","24","13","6","5","","","","","test","fear","fear","f","true"
"null","<div style=""font-size:60px;"">+</div>","null","html-keyboard-response","25","56576","0.0-9.0-0.8","cqjzb4","Thu Feb 10 2022 15:06:04 GMT+0100 (CET)","2022","2","10","15","6","4","mf21","21","female","right","100","24","13","6","5","","","","","fixation","","","",""
"1456.9999999999927","img/image_stim_f_stroop.png","70","image-keyboard-response","26","58034","0.0-9.0-1.8","cqjzb4","Thu Feb 10 2022 15:06:04 GMT+0100 (CET)","2022","2","10","15","6","4","mf21","21","female","right","100","24","13","6","5","","","","","test","fear","happy","f","true"
"null","<div style=""font-size:60px;"">+</div>","null","html-keyboard-response","27","59292","0.0-9.0-0.9","cqjzb4","Thu Feb 10 2022 15:06:04 GMT+0100 (CET)","2022","2","10","15","6","4","mf21","21","female","right","100","24","13","6","5","","","","","fixation","","","",""
"639","img/image_stim_h_stroop.png","72","image-keyboard-response","28","59933","0.0-9.0-1.9","cqjzb4","Thu Feb 10 2022 15:06:04 GMT+0100 (CET)","2022","2","10","15","6","4","mf21","21","female","right","100","24","13","6","5","","","","","test","happy","fear","h","true"
"null","<div style=""font-size:60px;"">+</div>","null","html-keyboard-response","29","61440","0.0-9.0-0.10","cqjzb4","Thu Feb 10 2022 15:06:04 GMT+0100 (CET)","2022","2","10","15","6","4","mf21","21","female","right","100","24","13","6","5","","","","","fixation","","","",""
"519","img/image_stim_f.png","70","image-keyboard-response","30","61960","0.0-9.0-1.10","cqjzb4","Thu Feb 10 2022 15:06:04 GMT+0100 (CET)","2022","2","10","15","6","4","mf21","21","female","right","100","24","13","6","5","","","","","test","fear","fear","f","true"
"null","<div style=""font-size:60px;"">+</div>","null","html-keyboard-response","31","63967","0.0-9.0-0.11","cqjzb4","Thu Feb 10 2022 15:06:04 GMT+0100 (CET)","2022","2","10","15","6","4","mf21","21","female","right","100","24","13","6","5","","","","","fixation","","","",""
"446","img/image_stim_h.png","72","image-keyboard-response","32","64416","0.0-9.0-1.11","cqjzb4","Thu Feb 10 2022 15:06:04 GMT+0100 (CET)","2022","2","10","15","6","4","mf21","21","female","right","100","24","13","6","5","","","","","test","happy","happy","h","true"
"null","<div style=""font-size:60px;"">+</div>","null","html-keyboard-response","33","65172","0.0-9.0-0.12","cqjzb4","Thu Feb 10 2022 15:06:04 GMT+0100 (CET)","2022","2","10","15","6","4","mf21","21","female","right","100","24","13","6","5","","","","","fixation","","","",""
"513.9999999999927","img/image_stim_h_stroop.png","70","image-keyboard-response","34","65688","0.0-9.0-1.12","cqjzb4","Thu Feb 10 2022 15:06:04 GMT+0100 (CET)","2022","2","10","15","6","4","mf21","21","female","right","100","24","13","6","5","","","","","test","happy","fear","h","false"
"null","<div style=""font-size:60px;"">+</div>","null","html-keyboard-response","35","67446","0.0-9.0-0.13","cqjzb4","Thu Feb 10 2022 15:06:04 GMT+0100 (CET)","2022","2","10","15","6","4","mf21","21","female","right","100","24","13","6","5","","","","","fixation","","","",""
"665","img/image_stim_f_stroop.png","70","image-keyboard-response","36","68113","0.0-9.0-1.13","cqjzb4","Thu Feb 10 2022 15:06:04 GMT+0100 (CET)","2022","2","10","15","6","4","mf21","21","female","right","100","24","13","6","5","","","","","test","fear","happy","f","true"
"null","<div style=""font-size:60px;"">+</div>","null","html-keyboard-response","37","68871","0.0-9.0-0.14","cqjzb4","Thu Feb 10 2022 15:06:04 GMT+0100 (CET)","2022","2","10","15","6","4","mf21","21","female","right","100","24","13","6","5","","","","","fixation","","","",""
"501","img/image_stim_h.png","72","image-keyboard-response","38","69374","0.0-9.0-1.14","cqjzb4","Thu Feb 10 2022 15:06:04 GMT+0100 (CET)","2022","2","10","15","6","4","mf21","21","female","right","100","24","13","6","5","","","","","test","happy","happy","h","true"
"null","<div style=""font-size:60px;"">+</div>","null","html-keyboard-response","39","70881","0.0-9.0-0.15","cqjzb4","Thu Feb 10 2022 15:06:04 GMT+0100 (CET)","2022","2","10","15","6","4","mf21","21","female","right","100","24","13","6","5","","","","","fixation","","","",""
"533","img/image_stim_f.png","70","image-keyboard-response","40","71416","0.0-9.0-1.15","cqjzb4","Thu Feb 10 2022 15:06:04 GMT+0100 (CET)","2022","2","10","15","6","4","mf21","21","female","right","100","24","13","6","5","","","","","test","fear","fear","f","true"
"null","<div style=""font-size:60px;"">+</div>","null","html-keyboard-response","41","72175","0.0-9.0-0.16","cqjzb4","Thu Feb 10 2022 15:06:04 GMT+0100 (CET)","2022","2","10","15","6","4","mf21","21","female","right","100","24","13","6","5","","","","","fixation","","","",""
"436.00000000001455","img/image_stim_h_stroop.png","72","image-keyboard-response","42","72613","0.0-9.0-1.16","cqjzb4","Thu Feb 10 2022 15:06:04 GMT+0100 (CET)","2022","2","10","15","6","4","mf21","21","female","right","100","24","13","6","5","","","","","test","happy","fear","h","true"
"null","<div style=""font-size:60px;"">+</div>","null","html-keyboard-response","43","73871","0.0-9.0-0.17","cqjzb4","Thu Feb 10 2022 15:06:04 GMT+0100 (CET)","2022","2","10","15","6","4","mf21","21","female","right","100","24","13","6","5","","","","","fixation","","","",""
"405","img/image_stim_f_stroop.png","72","image-keyboard-response","44","74279","0.0-9.0-1.17","cqjzb4","Thu Feb 10 2022 15:06:04 GMT+0100 (CET)","2022","2","10","15","6","4","mf21","21","female","right","100","24","13","6","5","","","","","test","fear","happy","f","false"
"null","<div style=""font-size:60px;"">+</div>","null","html-keyboard-response","45","74788","0.0-9.0-0.18","cqjzb4","Thu Feb 10 2022 15:06:04 GMT+0100 (CET)","2022","2","10","15","6","4","mf21","21","female","right","100","24","13","6","5","","","","","fixation","","","",""
"652","img/image_stim_h.png","72","image-keyboard-response","46","75442","0.0-9.0-1.18","cqjzb4","Thu Feb 10 2022 15:06:04 GMT+0100 (CET)","2022","2","10","15","6","4","mf21","21","female","right","100","24","13","6","5","","","","","test","happy","happy","h","true"
"null","<div style=""font-size:60px;"">+</div>","null","html-keyboard-response","47","77450","0.0-9.0-0.19","cqjzb4","Thu Feb 10 2022 15:06:04 GMT+0100 (CET)","2022","2","10","15","6","4","mf21","21","female","right","100","24","13","6","5","","","","","fixation","","","",""
"500","img/image_stim_f.png","70","image-keyboard-response","48","77954","0.0-9.0-1.19","cqjzb4","Thu Feb 10 2022 15:06:04 GMT+0100 (CET)","2022","2","10","15","6","4","mf21","21","female","right","100","24","13","6","5","","","","","test","fear","fear","f","true"
"null","<div style=""font-size:60px;"">+</div>","null","html-keyboard-response","49","78462","0.0-9.0-0.20","cqjzb4","Thu Feb 10 2022 15:06:04 GMT+0100 (CET)","2022","2","10","15","6","4","mf21","21","female","right","100","24","13","6","5","","","","","fixation","","","",""
"473","img/image_stim_h.png","72","image-keyboard-response","50","78937","0.0-9.0-1.20","cqjzb4","Thu Feb 10 2022 15:06:04 GMT+0100 (CET)","2022","2","10","15","6","4","mf21","21","female","right","100","24","13","6","5","","","","","test","happy","happy","h","true"
"null","<div style=""font-size:60px;"">+</div>","null","html-keyboard-response","51","79696","0.0-9.0-0.21","cqjzb4","Thu Feb 10 2022 15:06:04 GMT+0100 (CET)","2022","2","10","15","6","4","mf21","21","female","right","100","24","13","6","5","","","","","fixation","","","",""
"584","img/image_stim_f_stroop.png","70","image-keyboard-response","52","80282","0.0-9.0-1.21","cqjzb4","Thu Feb 10 2022 15:06:04 GMT+0100 (CET)","2022","2","10","15","6","4","mf21","21","female","right","100","24","13","6","5","","","","","test","fear","happy","f","true"
"null","<div style=""font-size:60px;"">+</div>","null","html-keyboard-response","53","81791","0.0-9.0-0.22","cqjzb4","Thu Feb 10 2022 15:06:04 GMT+0100 (CET)","2022","2","10","15","6","4","mf21","21","female","right","100","24","13","6","5","","","","","fixation","","","",""
"571","img/image_stim_f.png","70","image-keyboard-response","54","82364","0.0-9.0-1.22","cqjzb4","Thu Feb 10 2022 15:06:04 GMT+0100 (CET)","2022","2","10","15","6","4","mf21","21","female","right","100","24","13","6","5","","","","","test","fear","fear","f","true"
"null","<div style=""font-size:60px;"">+</div>","null","html-keyboard-response","55","84123","0.0-9.0-0.23","cqjzb4","Thu Feb 10 2022 15:06:04 GMT+0100 (CET)","2022","2","10","15","6","4","mf21","21","female","right","100","24","13","6","5","","","","","fixation","","","",""
"443","img/image_stim_h_stroop.png","72","image-keyboard-response","56","84568","0.0-9.0-1.23","cqjzb4","Thu Feb 10 2022 15:06:04 GMT+0100 (CET)","2022","2","10","15","6","4","mf21","21","female","right","100","24","13","6","5","","","","","test","happy","fear","h","true"
"null","<div style=""font-size:60px;"">+</div>","null","html-keyboard-response","57","84828","0.0-9.0-0.24","cqjzb4","Thu Feb 10 2022 15:06:04 GMT+0100 (CET)","2022","2","10","15","6","4","mf21","21","female","right","100","24","13","6","5","","","","","fixation","","","",""
"482","img/image_stim_h.png","72","image-keyboard-response","58","85312","0.0-9.0-1.24","cqjzb4","Thu Feb 10 2022 15:06:04 GMT+0100 (CET)","2022","2","10","15","6","4","mf21","21","female","right","100","24","13","6","5","","","","","test","happy","happy","h","true"
"null","<div style=""font-size:60px;"">+</div>","null","html-keyboard-response","59","86072","0.0-9.0-0.25","cqjzb4","Thu Feb 10 2022 15:06:04 GMT+0100 (CET)","2022","2","10","15","6","4","mf21","21","female","right","100","24","13","6","5","","","","","fixation","","","",""
"487","img/image_stim_f_stroop.png","70","image-keyboard-response","60","86561","0.0-9.0-1.25","cqjzb4","Thu Feb 10 2022 15:06:04 GMT+0100 (CET)","2022","2","10","15","6","4","mf21","21","female","right","100","24","13","6","5","","","","","test","fear","happy","f","true"
"null","<div style=""font-size:60px;"">+</div>","null","html-keyboard-response","61","88322","0.0-9.0-0.26","cqjzb4","Thu Feb 10 2022 15:06:04 GMT+0100 (CET)","2022","2","10","15","6","4","mf21","21","female","right","100","24","13","6","5","","","","","fixation","","","",""
"443","img/image_stim_h_stroop.png","72","image-keyboard-response","62","88766","0.0-9.0-1.26","cqjzb4","Thu Feb 10 2022 15:06:04 GMT+0100 (CET)","2022","2","10","15","6","4","mf21","21","female","right","100","24","13","6","5","","","","","test","happy","fear","h","true"
"null","<div style=""font-size:60px;"">+</div>","null","html-keyboard-response","63","89776","0.0-9.0-0.27","cqjzb4","Thu Feb 10 2022 15:06:04 GMT+0100 (CET)","2022","2","10","15","6","4","mf21","21","female","right","100","24","13","6","5","","","","","fixation","","","",""
"517","img/image_stim_f.png","70","image-keyboard-response","64","90294","0.0-9.0-1.27","cqjzb4","Thu Feb 10 2022 15:06:04 GMT+0100 (CET)","2022","2","10","15","6","4","mf21","21","female","right","100","24","13","6","5","","","","","test","fear","fear","f","true"
"null","<div style=""font-size:60px;"">+</div>","null","html-keyboard-response","65","91306","0.0-9.0-0.28","cqjzb4","Thu Feb 10 2022 15:06:04 GMT+0100 (CET)","2022","2","10","15","6","4","mf21","21","female","right","100","24","13","6","5","","","","","fixation","","","",""
"634","img/image_stim_f.png","70","image-keyboard-response","66","91942","0.0-9.0-1.28","cqjzb4","Thu Feb 10 2022 15:06:04 GMT+0100 (CET)","2022","2","10","15","6","4","mf21","21","female","right","100","24","13","6","5","","","","","test","fear","fear","f","true"
"null","<div style=""font-size:60px;"">+</div>","null","html-keyboard-response","67","93701","0.0-9.0-0.29","cqjzb4","Thu Feb 10 2022 15:06:04 GMT+0100 (CET)","2022","2","10","15","6","4","mf21","21","female","right","100","24","13","6","5","","","","","fixation","","","",""
"473","img/image_stim_h.png","72","image-keyboard-response","68","94176","0.0-9.0-1.29","cqjzb4","Thu Feb 10 2022 15:06:04 GMT+0100 (CET)","2022","2","10","15","6","4","mf21","21","female","right","100","24","13","6","5","","","","","test","happy","happy","h","true"
"null","<div style=""font-size:60px;"">+</div>","null","html-keyboard-response","69","94687","0.0-9.0-0.30","cqjzb4","Thu Feb 10 2022 15:06:04 GMT+0100 (CET)","2022","2","10","15","6","4","mf21","21","female","right","100","24","13","6","5","","","","","fixation","","","",""
"797","img/image_stim_h_stroop.png","72","image-keyboard-response","70","95486","0.0-9.0-1.30","cqjzb4","Thu Feb 10 2022 15:06:04 GMT+0100 (CET)","2022","2","10","15","6","4","mf21","21","female","right","100","24","13","6","5","","","","","test","happy","fear","h","true"
"null","<div style=""font-size:60px;"">+</div>","null","html-keyboard-response","71","97255","0.0-9.0-0.31","cqjzb4","Thu Feb 10 2022 15:06:04 GMT+0100 (CET)","2022","2","10","15","6","4","mf21","21","female","right","100","24","13","6","5","","","","","fixation","","","",""
"509","img/image_stim_f_stroop.png","70","image-keyboard-response","72","97767","0.0-9.0-1.31","cqjzb4","Thu Feb 10 2022 15:06:04 GMT+0100 (CET)","2022","2","10","15","6","4","mf21","21","female","right","100","24","13","6","5","","","","","test","fear","happy","f","true"
"null","<div style=""font-size:60px;"">+</div>","null","html-keyboard-response","73","99526","0.0-9.0-0.32","cqjzb4","Thu Feb 10 2022 15:06:04 GMT+0100 (CET)","2022","2","10","15","6","4","mf21","21","female","right","100","24","13","6","5","","","","","fixation","","","",""
"458","img/image_stim_f.png","70","image-keyboard-response","74","99986","0.0-9.0-1.32","cqjzb4","Thu Feb 10 2022 15:06:04 GMT+0100 (CET)","2022","2","10","15","6","4","mf21","21","female","right","100","24","13","6","5","","","","","test","fear","fear","f","true"
"null","<div style=""font-size:60px;"">+</div>","null","html-keyboard-response","75","101247","0.0-9.0-0.33","cqjzb4","Thu Feb 10 2022 15:06:04 GMT+0100 (CET)","2022","2","10","15","6","4","mf21","21","female","right","100","24","13","6","5","","","","","fixation","","","",""
"461.99999999998545","img/image_stim_h.png","72","image-keyboard-response","76","101711","0.0-9.0-1.33","cqjzb4","Thu Feb 10 2022 15:06:04 GMT+0100 (CET)","2022","2","10","15","6","4","mf21","21","female","right","100","24","13","6","5","","","","","test","happy","happy","h","true"
"null","<div style=""font-size:60px;"">+</div>","null","html-keyboard-response","77","103721","0.0-9.0-0.34","cqjzb4","Thu Feb 10 2022 15:06:04 GMT+0100 (CET)","2022","2","10","15","6","4","mf21","21","female","right","100","24","13","6","5","","","","","fixation","","","",""
"694","img/image_stim_h_stroop.png","72","image-keyboard-response","78","104417","0.0-9.0-1.34","cqjzb4","Thu Feb 10 2022 15:06:04 GMT+0100 (CET)","2022","2","10","15","6","4","mf21","21","female","right","100","24","13","6","5","","","","","test","happy","fear","h","true"
"null","<div style=""font-size:60px;"">+</div>","null","html-keyboard-response","79","105928","0.0-9.0-0.35","cqjzb4","Thu Feb 10 2022 15:06:04 GMT+0100 (CET)","2022","2","10","15","6","4","mf21","21","female","right","100","24","13","6","5","","","","","fixation","","","",""
"580","img/image_stim_f_stroop.png","70","image-keyboard-response","80","106509","0.0-9.0-1.35","cqjzb4","Thu Feb 10 2022 15:06:04 GMT+0100 (CET)","2022","2","10","15","6","4","mf21","21","female","right","100","24","13","6","5","","","","","test","fear","happy","f","true"
