"rt","stimulus","key_press","trial_type","trial_index","time_elapsed","internal_node_id","exp_id","Time","year","month","date","hour","minute","seconds","id","age","Gender","Handedness","mood","fresh","hunger","H_since_Sleep","H_since_Eat","responses","question_order","slider_start","response","test_part","face","word","correct_response","correct"
"1960.7349999714643","<p>Welcome to this experiment on daily rhythms and cognition.</p><p>First you will be asked some questions about yourself.</p><p>Then a short experiment will measure your response time.</p><p>Take the test at different times of the day/night.</p><p>The test is anonymous, but comparing your data across time is important.</p><p>Therefore, please make up and remember a personal ID (two letters+ two numbers).</p><p>Use this ID whenever taking the test.</p><p><strong>Press any key to begin.</strong></p>","32","html-keyboard-response","0","1964","0.0-0.0","bbbltz","Tue Feb 16 2021 08:25:39 GMT+0100 (Centraleuropæisk normaltid)","2021","2","16","8","25","39","mo51","51","female","right","50","50","50","1","10","","","","","","","","",""
"4650.259999965783","","","survey-text","1","6617","0.0-1.0","bbbltz","Tue Feb 16 2021 08:25:39 GMT+0100 (Centraleuropæisk normaltid)","2021","2","16","8","25","39","mo51","51","female","right","50","50","50","1","10","{""Q0"":""mo51""}","","","","","","","",""
"2694.499999983236","","","survey-text","2","9314","0.0-2.0","bbbltz","Tue Feb 16 2021 08:25:39 GMT+0100 (Centraleuropæisk normaltid)","2021","2","16","8","25","39","mo51","51","female","right","50","50","50","1","10","{""Q0"":""51""}","","","","","","","",""
"3382.0549999945797","","","survey-multi-select","3","12699","0.0-3.0","bbbltz","Tue Feb 16 2021 08:25:39 GMT+0100 (Centraleuropæisk normaltid)","2021","2","16","8","25","39","mo51","51","female","right","50","50","50","1","10","{""Gender"":[""female""],""Hand"":[""right""]}","[0,1]","","","","","","",""
"1314.5900000235997","<p>How Sad/Angry or Happy are you right now?</p>","","html-slider-response","4","14016","0.0-4.0","bbbltz","Tue Feb 16 2021 08:25:39 GMT+0100 (Centraleuropæisk normaltid)","2021","2","16","8","25","39","mo51","51","female","right","50","50","50","1","10","","","50","50","","","","",""
"887.4949999735691","<p>How Tired/Sleepy/Distracted or Fresh/Awake/Alert are you right now?</p>","","html-slider-response","5","14904","0.0-5.0","bbbltz","Tue Feb 16 2021 08:25:39 GMT+0100 (Centraleuropæisk normaltid)","2021","2","16","8","25","39","mo51","51","female","right","50","50","50","1","10","","","50","50","","","","",""
"803.2999999704771","<p>How Hungry or Satiated are you right now?</p>","","html-slider-response","6","15709","0.0-6.0","bbbltz","Tue Feb 16 2021 08:25:39 GMT+0100 (Centraleuropæisk normaltid)","2021","2","16","8","25","39","mo51","51","female","right","50","50","50","1","10","","","50","50","","","","",""
"5779.78499996243","","","survey-multi-select","7","21503","0.0-7.0","bbbltz","Tue Feb 16 2021 08:25:39 GMT+0100 (Centraleuropæisk normaltid)","2021","2","16","8","25","39","mo51","51","female","right","50","50","50","1","10","{""Sleep"":[""1""],""Eat"":[""10""]}","[0,1]","","","","","","",""
"7065.314999956172","<p>In this experiment, a face and a word will appear in the center of the screen.</p><p>If the face is <strong>happy</strong>, press the letter <strong>H</strong> with <strong>right</strong> index finger.</p><p>If the face is <strong>fearful</strong>, press the letter <strong>F</strong> with <strong>left</strong> index finger.</p><p><strong>Ignore the written words</strong>. Respond as fast as possible while being correct. </p><div style='width: 900px;'><div style='float: left;'><img src='img/stimuli_stroop_happy.png'></img><p class='small'><strong>Press the H key for happy faces</strong></p></div><div class='float: right;'><img src='img/stimuli_stroop_fear.png'></img><p class='small'><strong>Press the F key for faces with fear</strong></p></div></div><p>If the screen turns blank, press <strong>SPACE</strong></p><p><strong>Press any key to begin.</strong></p>","32","html-keyboard-response","8","28570","0.0-8.0","bbbltz","Tue Feb 16 2021 08:25:39 GMT+0100 (Centraleuropæisk normaltid)","2021","2","16","8","25","39","mo51","51","female","right","50","50","50","1","10","","","","","","","","",""
"null","<div style=""font-size:60px;"">+</div>","null","html-keyboard-response","9","30850","0.0-9.0-0.0","bbbltz","Tue Feb 16 2021 08:25:39 GMT+0100 (Centraleuropæisk normaltid)","2021","2","16","8","25","39","mo51","51","female","right","50","50","50","1","10","","","","","fixation","","","",""
"1723.9299999782816","img/image_stim_h.png","72","image-keyboard-response","10","32580","0.0-9.0-1.0","bbbltz","Tue Feb 16 2021 08:25:39 GMT+0100 (Centraleuropæisk normaltid)","2021","2","16","8","25","39","mo51","51","female","right","50","50","50","1","10","","","","","test","happy","happy","h","true"
"null","<div style=""font-size:60px;"">+</div>","null","html-keyboard-response","11","34336","0.0-9.0-0.1","bbbltz","Tue Feb 16 2021 08:25:39 GMT+0100 (Centraleuropæisk normaltid)","2021","2","16","8","25","39","mo51","51","female","right","50","50","50","1","10","","","","","fixation","","","",""
"958.0449999775738","img/image_stim_h_stroop.png","72","image-keyboard-response","12","35297","0.0-9.0-1.1","bbbltz","Tue Feb 16 2021 08:25:39 GMT+0100 (Centraleuropæisk normaltid)","2021","2","16","8","25","39","mo51","51","female","right","50","50","50","1","10","","","","","test","happy","fear","h","true"
"null","<div style=""font-size:60px;"">+</div>","null","html-keyboard-response","13","36067","0.0-9.0-0.2","bbbltz","Tue Feb 16 2021 08:25:39 GMT+0100 (Centraleuropæisk normaltid)","2021","2","16","8","25","39","mo51","51","female","right","50","50","50","1","10","","","","","fixation","","","",""
"522.9699999908917","img/image_stim_f.png","70","image-keyboard-response","14","36593","0.0-9.0-1.2","bbbltz","Tue Feb 16 2021 08:25:39 GMT+0100 (Centraleuropæisk normaltid)","2021","2","16","8","25","39","mo51","51","female","right","50","50","50","1","10","","","","","test","fear","fear","f","true"
"null","<div style=""font-size:60px;"">+</div>","null","html-keyboard-response","15","37108","0.0-9.0-0.3","bbbltz","Tue Feb 16 2021 08:25:39 GMT+0100 (Centraleuropæisk normaltid)","2021","2","16","8","25","39","mo51","51","female","right","50","50","50","1","10","","","","","fixation","","","",""
"504.9049999797717","img/image_stim_f_stroop.png","72","image-keyboard-response","16","37616","0.0-9.0-1.3","bbbltz","Tue Feb 16 2021 08:25:39 GMT+0100 (Centraleuropæisk normaltid)","2021","2","16","8","25","39","mo51","51","female","right","50","50","50","1","10","","","","","test","fear","happy","f","false"
"null","<div style=""font-size:60px;"">+</div>","null","html-keyboard-response","17","38628","0.0-9.0-0.4","bbbltz","Tue Feb 16 2021 08:25:39 GMT+0100 (Centraleuropæisk normaltid)","2021","2","16","8","25","39","mo51","51","female","right","50","50","50","1","10","","","","","fixation","","","",""
"728.6450000246987","img/image_stim_f.png","70","image-keyboard-response","18","39360","0.0-9.0-1.4","bbbltz","Tue Feb 16 2021 08:25:39 GMT+0100 (Centraleuropæisk normaltid)","2021","2","16","8","25","39","mo51","51","female","right","50","50","50","1","10","","","","","test","fear","fear","f","true"
"null","<div style=""font-size:60px;"">+</div>","null","html-keyboard-response","19","41126","0.0-9.0-0.5","bbbltz","Tue Feb 16 2021 08:25:39 GMT+0100 (Centraleuropæisk normaltid)","2021","2","16","8","25","39","mo51","51","female","right","50","50","50","1","10","","","","","fixation","","","",""
"593.8699999824166","img/image_stim_h_stroop.png","72","image-keyboard-response","20","41722","0.0-9.0-1.5","bbbltz","Tue Feb 16 2021 08:25:39 GMT+0100 (Centraleuropæisk normaltid)","2021","2","16","8","25","39","mo51","51","female","right","50","50","50","1","10","","","","","test","happy","fear","h","true"
"null","<div style=""font-size:60px;"">+</div>","null","html-keyboard-response","21","42982","0.0-9.0-0.6","bbbltz","Tue Feb 16 2021 08:25:39 GMT+0100 (Centraleuropæisk normaltid)","2021","2","16","8","25","39","mo51","51","female","right","50","50","50","1","10","","","","","fixation","","","",""
"809.914999990724","img/image_stim_f_stroop.png","70","image-keyboard-response","22","43795","0.0-9.0-1.6","bbbltz","Tue Feb 16 2021 08:25:39 GMT+0100 (Centraleuropæisk normaltid)","2021","2","16","8","25","39","mo51","51","female","right","50","50","50","1","10","","","","","test","fear","happy","f","true"
"null","<div style=""font-size:60px;"">+</div>","null","html-keyboard-response","23","45061","0.0-9.0-0.7","bbbltz","Tue Feb 16 2021 08:25:39 GMT+0100 (Centraleuropæisk normaltid)","2021","2","16","8","25","39","mo51","51","female","right","50","50","50","1","10","","","","","fixation","","","",""
"504.9250000156462","img/image_stim_h.png","72","image-keyboard-response","24","45568","0.0-9.0-1.7","bbbltz","Tue Feb 16 2021 08:25:39 GMT+0100 (Centraleuropæisk normaltid)","2021","2","16","8","25","39","mo51","51","female","right","50","50","50","1","10","","","","","test","happy","happy","h","true"
"null","<div style=""font-size:60px;"">+</div>","null","html-keyboard-response","25","47582","0.0-9.0-0.8","bbbltz","Tue Feb 16 2021 08:25:39 GMT+0100 (Centraleuropæisk normaltid)","2021","2","16","8","25","39","mo51","51","female","right","50","50","50","1","10","","","","","fixation","","","",""
"1000.2799999783747","img/image_stim_f_stroop.png","70","image-keyboard-response","26","48585","0.0-9.0-1.8","bbbltz","Tue Feb 16 2021 08:25:39 GMT+0100 (Centraleuropæisk normaltid)","2021","2","16","8","25","39","mo51","51","female","right","50","50","50","1","10","","","","","test","fear","happy","f","true"
"null","<div style=""font-size:60px;"">+</div>","null","html-keyboard-response","27","49593","0.0-9.0-0.9","bbbltz","Tue Feb 16 2021 08:25:39 GMT+0100 (Centraleuropæisk normaltid)","2021","2","16","8","25","39","mo51","51","female","right","50","50","50","1","10","","","","","fixation","","","",""
"503.0499999993481","img/image_stim_h.png","72","image-keyboard-response","28","50097","0.0-9.0-1.9","bbbltz","Tue Feb 16 2021 08:25:39 GMT+0100 (Centraleuropæisk normaltid)","2021","2","16","8","25","39","mo51","51","female","right","50","50","50","1","10","","","","","test","happy","happy","h","true"
"null","<div style=""font-size:60px;"">+</div>","null","html-keyboard-response","29","51858","0.0-9.0-0.10","bbbltz","Tue Feb 16 2021 08:25:39 GMT+0100 (Centraleuropæisk normaltid)","2021","2","16","8","25","39","mo51","51","female","right","50","50","50","1","10","","","","","fixation","","","",""
"772.2949999733828","img/image_stim_h_stroop.png","72","image-keyboard-response","30","52634","0.0-9.0-1.10","bbbltz","Tue Feb 16 2021 08:25:39 GMT+0100 (Centraleuropæisk normaltid)","2021","2","16","8","25","39","mo51","51","female","right","50","50","50","1","10","","","","","test","happy","fear","h","true"
"null","<div style=""font-size:60px;"">+</div>","null","html-keyboard-response","31","52903","0.0-9.0-0.11","bbbltz","Tue Feb 16 2021 08:25:39 GMT+0100 (Centraleuropæisk normaltid)","2021","2","16","8","25","39","mo51","51","female","right","50","50","50","1","10","","","","","fixation","","","",""
"697.2149999928661","img/image_stim_f.png","70","image-keyboard-response","32","53602","0.0-9.0-1.11","bbbltz","Tue Feb 16 2021 08:25:39 GMT+0100 (Centraleuropæisk normaltid)","2021","2","16","8","25","39","mo51","51","female","right","50","50","50","1","10","","","","","test","fear","fear","f","true"
"null","<div style=""font-size:60px;"">+</div>","null","html-keyboard-response","33","54609","0.0-9.0-0.12","bbbltz","Tue Feb 16 2021 08:25:39 GMT+0100 (Centraleuropæisk normaltid)","2021","2","16","8","25","39","mo51","51","female","right","50","50","50","1","10","","","","","fixation","","","",""
"1276.1799999861978","img/image_stim_f_stroop.png","72","image-keyboard-response","34","55888","0.0-9.0-1.12","bbbltz","Tue Feb 16 2021 08:25:39 GMT+0100 (Centraleuropæisk normaltid)","2021","2","16","8","25","39","mo51","51","female","right","50","50","50","1","10","","","","","test","fear","happy","f","false"
"null","<div style=""font-size:60px;"">+</div>","null","html-keyboard-response","35","56891","0.0-9.0-0.13","bbbltz","Tue Feb 16 2021 08:25:39 GMT+0100 (Centraleuropæisk normaltid)","2021","2","16","8","25","39","mo51","51","female","right","50","50","50","1","10","","","","","fixation","","","",""
"797.0700000296347","img/image_stim_h.png","72","image-keyboard-response","36","57690","0.0-9.0-1.13","bbbltz","Tue Feb 16 2021 08:25:39 GMT+0100 (Centraleuropæisk normaltid)","2021","2","16","8","25","39","mo51","51","female","right","50","50","50","1","10","","","","","test","happy","happy","h","true"
"null","<div style=""font-size:60px;"">+</div>","null","html-keyboard-response","37","59207","0.0-9.0-0.14","bbbltz","Tue Feb 16 2021 08:25:39 GMT+0100 (Centraleuropæisk normaltid)","2021","2","16","8","25","39","mo51","51","female","right","50","50","50","1","10","","","","","fixation","","","",""
"928.1449999543838","img/image_stim_h_stroop.png","72","image-keyboard-response","38","60138","0.0-9.0-1.14","bbbltz","Tue Feb 16 2021 08:25:39 GMT+0100 (Centraleuropæisk normaltid)","2021","2","16","8","25","39","mo51","51","female","right","50","50","50","1","10","","","","","test","happy","fear","h","true"
"null","<div style=""font-size:60px;"">+</div>","null","html-keyboard-response","39","61408","0.0-9.0-0.15","bbbltz","Tue Feb 16 2021 08:25:39 GMT+0100 (Centraleuropæisk normaltid)","2021","2","16","8","25","39","mo51","51","female","right","50","50","50","1","10","","","","","fixation","","","",""
"702.4899999960326","img/image_stim_f.png","70","image-keyboard-response","40","62114","0.0-9.0-1.15","bbbltz","Tue Feb 16 2021 08:25:39 GMT+0100 (Centraleuropæisk normaltid)","2021","2","16","8","25","39","mo51","51","female","right","50","50","50","1","10","","","","","test","fear","fear","f","true"
"null","<div style=""font-size:60px;"">+</div>","null","html-keyboard-response","41","64121","0.0-9.0-0.16","bbbltz","Tue Feb 16 2021 08:25:39 GMT+0100 (Centraleuropæisk normaltid)","2021","2","16","8","25","39","mo51","51","female","right","50","50","50","1","10","","","","","fixation","","","",""
"2000.6549999816343","img/image_stim_f.png","70","image-keyboard-response","42","66123","0.0-9.0-1.16","bbbltz","Tue Feb 16 2021 08:25:39 GMT+0100 (Centraleuropæisk normaltid)","2021","2","16","8","25","39","mo51","51","female","right","50","50","50","1","10","","","","","test","fear","fear","f","true"
"null","<div style=""font-size:60px;"">+</div>","null","html-keyboard-response","43","67385","0.0-9.0-0.17","bbbltz","Tue Feb 16 2021 08:25:39 GMT+0100 (Centraleuropæisk normaltid)","2021","2","16","8","25","39","mo51","51","female","right","50","50","50","1","10","","","","","fixation","","","",""
"949.0150000201538","img/image_stim_f_stroop.png","70","image-keyboard-response","44","68336","0.0-9.0-1.17","bbbltz","Tue Feb 16 2021 08:25:39 GMT+0100 (Centraleuropæisk normaltid)","2021","2","16","8","25","39","mo51","51","female","right","50","50","50","1","10","","","","","test","fear","happy","f","true"
"null","<div style=""font-size:60px;"">+</div>","null","html-keyboard-response","45","68841","0.0-9.0-0.18","bbbltz","Tue Feb 16 2021 08:25:39 GMT+0100 (Centraleuropæisk normaltid)","2021","2","16","8","25","39","mo51","51","female","right","50","50","50","1","10","","","","","fixation","","","",""
"500.16499997582287","img/image_stim_h.png","72","image-keyboard-response","46","69344","0.0-9.0-1.18","bbbltz","Tue Feb 16 2021 08:25:39 GMT+0100 (Centraleuropæisk normaltid)","2021","2","16","8","25","39","mo51","51","female","right","50","50","50","1","10","","","","","test","happy","happy","h","true"
"null","<div style=""font-size:60px;"">+</div>","null","html-keyboard-response","47","70357","0.0-9.0-0.19","bbbltz","Tue Feb 16 2021 08:25:39 GMT+0100 (Centraleuropæisk normaltid)","2021","2","16","8","25","39","mo51","51","female","right","50","50","50","1","10","","","","","fixation","","","",""
"697.0149999833666","img/image_stim_h_stroop.png","72","image-keyboard-response","48","71058","0.0-9.0-1.19","bbbltz","Tue Feb 16 2021 08:25:39 GMT+0100 (Centraleuropæisk normaltid)","2021","2","16","8","25","39","mo51","51","female","right","50","50","50","1","10","","","","","test","happy","fear","h","true"
"null","<div style=""font-size:60px;"">+</div>","null","html-keyboard-response","49","72079","0.0-9.0-0.20","bbbltz","Tue Feb 16 2021 08:25:39 GMT+0100 (Centraleuropæisk normaltid)","2021","2","16","8","25","39","mo51","51","female","right","50","50","50","1","10","","","","","fixation","","","",""
"583.4449999965727","img/image_stim_h_stroop.png","72","image-keyboard-response","50","72666","0.0-9.0-1.20","bbbltz","Tue Feb 16 2021 08:25:39 GMT+0100 (Centraleuropæisk normaltid)","2021","2","16","8","25","39","mo51","51","female","right","50","50","50","1","10","","","","","test","happy","fear","h","true"
"null","<div style=""font-size:60px;"">+</div>","null","html-keyboard-response","51","74679","0.0-9.0-0.21","bbbltz","Tue Feb 16 2021 08:25:39 GMT+0100 (Centraleuropæisk normaltid)","2021","2","16","8","25","39","mo51","51","female","right","50","50","50","1","10","","","","","fixation","","","",""
"606.9600000046194","img/image_stim_f.png","70","image-keyboard-response","52","75290","0.0-9.0-1.21","bbbltz","Tue Feb 16 2021 08:25:39 GMT+0100 (Centraleuropæisk normaltid)","2021","2","16","8","25","39","mo51","51","female","right","50","50","50","1","10","","","","","test","fear","fear","f","true"
"null","<div style=""font-size:60px;"">+</div>","null","html-keyboard-response","53","76310","0.0-9.0-0.22","bbbltz","Tue Feb 16 2021 08:25:39 GMT+0100 (Centraleuropæisk normaltid)","2021","2","16","8","25","39","mo51","51","female","right","50","50","50","1","10","","","","","fixation","","","",""
"601.6749999835156","img/image_stim_f_stroop.png","72","image-keyboard-response","54","76915","0.0-9.0-1.22","bbbltz","Tue Feb 16 2021 08:25:39 GMT+0100 (Centraleuropæisk normaltid)","2021","2","16","8","25","39","mo51","51","female","right","50","50","50","1","10","","","","","test","fear","happy","f","false"
"null","<div style=""font-size:60px;"">+</div>","null","html-keyboard-response","55","77934","0.0-9.0-0.23","bbbltz","Tue Feb 16 2021 08:25:39 GMT+0100 (Centraleuropæisk normaltid)","2021","2","16","8","25","39","mo51","51","female","right","50","50","50","1","10","","","","","fixation","","","",""
"657.8900000313297","img/image_stim_h.png","72","image-keyboard-response","56","78594","0.0-9.0-1.23","bbbltz","Tue Feb 16 2021 08:25:39 GMT+0100 (Centraleuropæisk normaltid)","2021","2","16","8","25","39","mo51","51","female","right","50","50","50","1","10","","","","","test","happy","happy","h","true"
"null","<div style=""font-size:60px;"">+</div>","null","html-keyboard-response","57","78863","0.0-9.0-0.24","bbbltz","Tue Feb 16 2021 08:25:39 GMT+0100 (Centraleuropæisk normaltid)","2021","2","16","8","25","39","mo51","51","female","right","50","50","50","1","10","","","","","fixation","","","",""
"623.6299999873154","img/image_stim_h_stroop.png","72","image-keyboard-response","58","79489","0.0-9.0-1.24","bbbltz","Tue Feb 16 2021 08:25:39 GMT+0100 (Centraleuropæisk normaltid)","2021","2","16","8","25","39","mo51","51","female","right","50","50","50","1","10","","","","","test","happy","fear","h","true"
"null","<div style=""font-size:60px;"">+</div>","null","html-keyboard-response","59","79760","0.0-9.0-0.25","bbbltz","Tue Feb 16 2021 08:25:39 GMT+0100 (Centraleuropæisk normaltid)","2021","2","16","8","25","39","mo51","51","female","right","50","50","50","1","10","","","","","fixation","","","",""
"829.230000032112","img/image_stim_f.png","70","image-keyboard-response","60","80592","0.0-9.0-1.25","bbbltz","Tue Feb 16 2021 08:25:39 GMT+0100 (Centraleuropæisk normaltid)","2021","2","16","8","25","39","mo51","51","female","right","50","50","50","1","10","","","","","test","fear","fear","f","true"
"null","<div style=""font-size:60px;"">+</div>","null","html-keyboard-response","61","81855","0.0-9.0-0.26","bbbltz","Tue Feb 16 2021 08:25:39 GMT+0100 (Centraleuropæisk normaltid)","2021","2","16","8","25","39","mo51","51","female","right","50","50","50","1","10","","","","","fixation","","","",""
"1270.2099999878556","img/image_stim_f_stroop.png","70","image-keyboard-response","62","83128","0.0-9.0-1.26","bbbltz","Tue Feb 16 2021 08:25:39 GMT+0100 (Centraleuropæisk normaltid)","2021","2","16","8","25","39","mo51","51","female","right","50","50","50","1","10","","","","","test","fear","happy","f","true"
"null","<div style=""font-size:60px;"">+</div>","null","html-keyboard-response","63","83888","0.0-9.0-0.27","bbbltz","Tue Feb 16 2021 08:25:39 GMT+0100 (Centraleuropæisk normaltid)","2021","2","16","8","25","39","mo51","51","female","right","50","50","50","1","10","","","","","fixation","","","",""
"548.5849999822676","img/image_stim_h.png","72","image-keyboard-response","64","84440","0.0-9.0-1.27","bbbltz","Tue Feb 16 2021 08:25:39 GMT+0100 (Centraleuropæisk normaltid)","2021","2","16","8","25","39","mo51","51","female","right","50","50","50","1","10","","","","","test","happy","happy","h","true"
"null","<div style=""font-size:60px;"">+</div>","null","html-keyboard-response","65","85203","0.0-9.0-0.28","bbbltz","Tue Feb 16 2021 08:25:39 GMT+0100 (Centraleuropæisk normaltid)","2021","2","16","8","25","39","mo51","51","female","right","50","50","50","1","10","","","","","fixation","","","",""
"914.9399999878369","img/image_stim_f.png","70","image-keyboard-response","66","86122","0.0-9.0-1.28","bbbltz","Tue Feb 16 2021 08:25:39 GMT+0100 (Centraleuropæisk normaltid)","2021","2","16","8","25","39","mo51","51","female","right","50","50","50","1","10","","","","","test","fear","fear","f","true"
"null","<div style=""font-size:60px;"">+</div>","null","html-keyboard-response","67","88133","0.0-9.0-0.29","bbbltz","Tue Feb 16 2021 08:25:39 GMT+0100 (Centraleuropæisk normaltid)","2021","2","16","8","25","39","mo51","51","female","right","50","50","50","1","10","","","","","fixation","","","",""
"651.3049999484792","img/image_stim_f_stroop.png","70","image-keyboard-response","68","88789","0.0-9.0-1.29","bbbltz","Tue Feb 16 2021 08:25:39 GMT+0100 (Centraleuropæisk normaltid)","2021","2","16","8","25","39","mo51","51","female","right","50","50","50","1","10","","","","","test","fear","happy","f","true"
"null","<div style=""font-size:60px;"">+</div>","null","html-keyboard-response","69","90047","0.0-9.0-0.30","bbbltz","Tue Feb 16 2021 08:25:39 GMT+0100 (Centraleuropæisk normaltid)","2021","2","16","8","25","39","mo51","51","female","right","50","50","50","1","10","","","","","fixation","","","",""
"543.9649999607354","img/image_stim_h_stroop.png","72","image-keyboard-response","70","90594","0.0-9.0-1.30","bbbltz","Tue Feb 16 2021 08:25:39 GMT+0100 (Centraleuropæisk normaltid)","2021","2","16","8","25","39","mo51","51","female","right","50","50","50","1","10","","","","","test","happy","fear","h","true"
"null","<div style=""font-size:60px;"">+</div>","null","html-keyboard-response","71","91357","0.0-9.0-0.31","bbbltz","Tue Feb 16 2021 08:25:39 GMT+0100 (Centraleuropæisk normaltid)","2021","2","16","8","25","39","mo51","51","female","right","50","50","50","1","10","","","","","fixation","","","",""
"667.4549999879673","img/image_stim_h.png","72","image-keyboard-response","72","92026","0.0-9.0-1.31","bbbltz","Tue Feb 16 2021 08:25:39 GMT+0100 (Centraleuropæisk normaltid)","2021","2","16","8","25","39","mo51","51","female","right","50","50","50","1","10","","","","","test","happy","happy","h","true"
"null","<div style=""font-size:60px;"">+</div>","null","html-keyboard-response","73","92545","0.0-9.0-0.32","bbbltz","Tue Feb 16 2021 08:25:39 GMT+0100 (Centraleuropæisk normaltid)","2021","2","16","8","25","39","mo51","51","female","right","50","50","50","1","10","","","","","fixation","","","",""
"477.48499998124316","img/image_stim_h_stroop.png","72","image-keyboard-response","74","93026","0.0-9.0-1.32","bbbltz","Tue Feb 16 2021 08:25:39 GMT+0100 (Centraleuropæisk normaltid)","2021","2","16","8","25","39","mo51","51","female","right","50","50","50","1","10","","","","","test","happy","fear","h","true"
"null","<div style=""font-size:60px;"">+</div>","null","html-keyboard-response","75","93542","0.0-9.0-0.33","bbbltz","Tue Feb 16 2021 08:25:39 GMT+0100 (Centraleuropæisk normaltid)","2021","2","16","8","25","39","mo51","51","female","right","50","50","50","1","10","","","","","fixation","","","",""
"465.50499997101724","img/image_stim_h.png","72","image-keyboard-response","76","94010","0.0-9.0-1.33","bbbltz","Tue Feb 16 2021 08:25:39 GMT+0100 (Centraleuropæisk normaltid)","2021","2","16","8","25","39","mo51","51","female","right","50","50","50","1","10","","","","","test","happy","happy","h","true"
"null","<div style=""font-size:60px;"">+</div>","null","html-keyboard-response","77","95266","0.0-9.0-0.34","bbbltz","Tue Feb 16 2021 08:25:39 GMT+0100 (Centraleuropæisk normaltid)","2021","2","16","8","25","39","mo51","51","female","right","50","50","50","1","10","","","","","fixation","","","",""
"604.1199999745004","img/image_stim_f.png","70","image-keyboard-response","78","95873","0.0-9.0-1.34","bbbltz","Tue Feb 16 2021 08:25:39 GMT+0100 (Centraleuropæisk normaltid)","2021","2","16","8","25","39","mo51","51","female","right","50","50","50","1","10","","","","","test","fear","fear","f","true"
"null","<div style=""font-size:60px;"">+</div>","null","html-keyboard-response","79","97396","0.0-9.0-0.35","bbbltz","Tue Feb 16 2021 08:25:39 GMT+0100 (Centraleuropæisk normaltid)","2021","2","16","8","25","39","mo51","51","female","right","50","50","50","1","10","","","","","fixation","","","",""
"610.5600000009872","img/image_stim_f_stroop.png","72","image-keyboard-response","80","98009","0.0-9.0-1.35","bbbltz","Tue Feb 16 2021 08:25:39 GMT+0100 (Centraleuropæisk normaltid)","2021","2","16","8","25","39","mo51","51","female","right","50","50","50","1","10","","","","","test","fear","happy","f","false"
