"rt","stimulus","key_press","trial_type","trial_index","time_elapsed","internal_node_id","exp_id","Time","year","month","date","hour","minute","seconds","id","age","Gender","Handedness","mood","fresh","hunger","H_since_Sleep","H_since_Eat","responses","question_order","slider_start","response","test_part","face","word","correct_response","correct"
"35402.24000008311","<p>Welcome to this experiment on daily rhythms and cognition.</p><p>First you will be asked some questions about yourself.</p><p>Then a short experiment will measure your response time.</p><p>Take the test at different times of the day/night.</p><p>The test is anonymous, but comparing your data across time is important.</p><p>Therefore, please make up and remember a personal ID (two letters+ two numbers).</p><p>Use this ID whenever taking the test.</p><p><strong>Press any key to begin.</strong></p>","32","html-keyboard-response","0","35404","0.0-0.0","dyv47g","Thu Feb 11 2021 18:09:16 GMT+0100 (Centraleuropæisk normaltid)","2021","2","11","18","9","16","lwp1234","22","female","right","67","50","50","10","1","","","","","","","","",""
"12405.999999959022","","","survey-text","1","47813","0.0-1.0","dyv47g","Thu Feb 11 2021 18:09:16 GMT+0100 (Centraleuropæisk normaltid)","2021","2","11","18","9","16","lwp1234","22","female","right","67","50","50","10","1","{""Q0"":""lwp1234""}","","","","","","","",""
"3775.7250000722706","","","survey-text","2","51591","0.0-2.0","dyv47g","Thu Feb 11 2021 18:09:16 GMT+0100 (Centraleuropæisk normaltid)","2021","2","11","18","9","16","lwp1234","22","female","right","67","50","50","10","1","{""Q0"":""22""}","","","","","","","",""
"7386.924999998882","","","survey-multi-select","3","58981","0.0-3.0","dyv47g","Thu Feb 11 2021 18:09:16 GMT+0100 (Centraleuropæisk normaltid)","2021","2","11","18","9","16","lwp1234","22","female","right","67","50","50","10","1","{""Gender"":[""female""],""Hand"":[""right""]}","[0,1]","","","","","","",""
"23668.65999996662","<p>How Sad/Angry or Happy are you right now?</p>","","html-slider-response","4","82651","0.0-4.0","dyv47g","Thu Feb 11 2021 18:09:16 GMT+0100 (Centraleuropæisk normaltid)","2021","2","11","18","9","16","lwp1234","22","female","right","67","50","50","10","1","","","50","67","","","","",""
"9347.505000070669","<p>How Tired/Sleepy/Distracted or Fresh/Awake/Alert are you right now?</p>","","html-slider-response","5","92000","0.0-5.0","dyv47g","Thu Feb 11 2021 18:09:16 GMT+0100 (Centraleuropæisk normaltid)","2021","2","11","18","9","16","lwp1234","22","female","right","67","50","50","10","1","","","50","50","","","","",""
"3311.6200000513345","<p>How Hungry or Satiated are you right now?</p>","","html-slider-response","6","95312","0.0-6.0","dyv47g","Thu Feb 11 2021 18:09:16 GMT+0100 (Centraleuropæisk normaltid)","2021","2","11","18","9","16","lwp1234","22","female","right","67","50","50","10","1","","","50","50","","","","",""
"29285.85500002373","","","survey-multi-select","7","124612","0.0-7.0","dyv47g","Thu Feb 11 2021 18:09:16 GMT+0100 (Centraleuropæisk normaltid)","2021","2","11","18","9","16","lwp1234","22","female","right","67","50","50","10","1","{""Sleep"":[""10""],""Eat"":[""1""]}","[0,1]","","","","","","",""
"30995.63500005752","<p>In this experiment, a face and a word will appear in the center of the screen.</p><p>If the face is <strong>happy</strong>, press the letter <strong>H</strong> with <strong>right</strong> index finger.</p><p>If the face is <strong>fearful</strong>, press the letter <strong>F</strong> with <strong>left</strong> index finger.</p><p><strong>Ignore the written words</strong>. Respond as fast as possible while being correct. </p><div style='width: 900px;'><div style='float: left;'><img src='img/stimuli_stroop_happy.png'></img><p class='small'><strong>Press the H key for happy faces</strong></p></div><div class='float: right;'><img src='img/stimuli_stroop_fear.png'></img><p class='small'><strong>Press the F key for faces with fear</strong></p></div></div><p>If the screen turns blank, press <strong>SPACE</strong></p><p><strong>Press any key to begin.</strong></p>","32","html-keyboard-response","8","155609","0.0-8.0","dyv47g","Thu Feb 11 2021 18:09:16 GMT+0100 (Centraleuropæisk normaltid)","2021","2","11","18","9","16","lwp1234","22","female","right","67","50","50","10","1","","","","","","","","",""
"null","<div style=""font-size:60px;"">+</div>","null","html-keyboard-response","9","159364","0.0-9.0-0.0","dyv47g","Thu Feb 11 2021 18:09:16 GMT+0100 (Centraleuropæisk normaltid)","2021","2","11","18","9","16","lwp1234","22","female","right","67","50","50","10","1","","","","","fixation","","","",""
"264.46500001475215","img/image_stim_f_stroop.png","32","image-keyboard-response","10","159636","0.0-9.0-1.0","dyv47g","Thu Feb 11 2021 18:09:16 GMT+0100 (Centraleuropæisk normaltid)","2021","2","11","18","9","16","lwp1234","22","female","right","67","50","50","10","1","","","","","test","fear","happy","f","false"
"null","<div style=""font-size:60px;"">+</div>","null","html-keyboard-response","11","160394","0.0-9.0-0.1","dyv47g","Thu Feb 11 2021 18:09:16 GMT+0100 (Centraleuropæisk normaltid)","2021","2","11","18","9","16","lwp1234","22","female","right","67","50","50","10","1","","","","","fixation","","","",""
"1401.5949999447912","img/image_stim_h.png","72","image-keyboard-response","12","161797","0.0-9.0-1.1","dyv47g","Thu Feb 11 2021 18:09:16 GMT+0100 (Centraleuropæisk normaltid)","2021","2","11","18","9","16","lwp1234","22","female","right","67","50","50","10","1","","","","","test","happy","happy","h","true"
"null","<div style=""font-size:60px;"">+</div>","null","html-keyboard-response","13","163301","0.0-9.0-0.2","dyv47g","Thu Feb 11 2021 18:09:16 GMT+0100 (Centraleuropæisk normaltid)","2021","2","11","18","9","16","lwp1234","22","female","right","67","50","50","10","1","","","","","fixation","","","",""
"519.3549999967217","img/image_stim_f.png","70","image-keyboard-response","14","163822","0.0-9.0-1.2","dyv47g","Thu Feb 11 2021 18:09:16 GMT+0100 (Centraleuropæisk normaltid)","2021","2","11","18","9","16","lwp1234","22","female","right","67","50","50","10","1","","","","","test","fear","fear","f","true"
"null","<div style=""font-size:60px;"">+</div>","null","html-keyboard-response","15","164078","0.0-9.0-0.3","dyv47g","Thu Feb 11 2021 18:09:16 GMT+0100 (Centraleuropæisk normaltid)","2021","2","11","18","9","16","lwp1234","22","female","right","67","50","50","10","1","","","","","fixation","","","",""
"381.0100000118837","img/image_stim_h_stroop.png","72","image-keyboard-response","16","164460","0.0-9.0-1.3","dyv47g","Thu Feb 11 2021 18:09:16 GMT+0100 (Centraleuropæisk normaltid)","2021","2","11","18","9","16","lwp1234","22","female","right","67","50","50","10","1","","","","","test","happy","fear","h","true"
"null","<div style=""font-size:60px;"">+</div>","null","html-keyboard-response","17","165464","0.0-9.0-0.4","dyv47g","Thu Feb 11 2021 18:09:16 GMT+0100 (Centraleuropæisk normaltid)","2021","2","11","18","9","16","lwp1234","22","female","right","67","50","50","10","1","","","","","fixation","","","",""
"379.505000077188","img/image_stim_h.png","70","image-keyboard-response","18","165845","0.0-9.0-1.4","dyv47g","Thu Feb 11 2021 18:09:16 GMT+0100 (Centraleuropæisk normaltid)","2021","2","11","18","9","16","lwp1234","22","female","right","67","50","50","10","1","","","","","test","happy","happy","h","false"
"null","<div style=""font-size:60px;"">+</div>","null","html-keyboard-response","19","166098","0.0-9.0-0.5","dyv47g","Thu Feb 11 2021 18:09:16 GMT+0100 (Centraleuropæisk normaltid)","2021","2","11","18","9","16","lwp1234","22","female","right","67","50","50","10","1","","","","","fixation","","","",""
"512.529999949038","img/image_stim_f.png","70","image-keyboard-response","20","166612","0.0-9.0-1.5","dyv47g","Thu Feb 11 2021 18:09:16 GMT+0100 (Centraleuropæisk normaltid)","2021","2","11","18","9","16","lwp1234","22","female","right","67","50","50","10","1","","","","","test","fear","fear","f","true"
"null","<div style=""font-size:60px;"">+</div>","null","html-keyboard-response","21","168366","0.0-9.0-0.6","dyv47g","Thu Feb 11 2021 18:09:16 GMT+0100 (Centraleuropæisk normaltid)","2021","2","11","18","9","16","lwp1234","22","female","right","67","50","50","10","1","","","","","fixation","","","",""
"771.4400000404567","img/image_stim_h_stroop.png","70","image-keyboard-response","22","169139","0.0-9.0-1.6","dyv47g","Thu Feb 11 2021 18:09:16 GMT+0100 (Centraleuropæisk normaltid)","2021","2","11","18","9","16","lwp1234","22","female","right","67","50","50","10","1","","","","","test","happy","fear","h","false"
"null","<div style=""font-size:60px;"">+</div>","null","html-keyboard-response","23","170648","0.0-9.0-0.7","dyv47g","Thu Feb 11 2021 18:09:16 GMT+0100 (Centraleuropæisk normaltid)","2021","2","11","18","9","16","lwp1234","22","female","right","67","50","50","10","1","","","","","fixation","","","",""
"795.0300000375137","img/image_stim_f_stroop.png","70","image-keyboard-response","24","171444","0.0-9.0-1.7","dyv47g","Thu Feb 11 2021 18:09:16 GMT+0100 (Centraleuropæisk normaltid)","2021","2","11","18","9","16","lwp1234","22","female","right","67","50","50","10","1","","","","","test","fear","happy","f","true"
"null","<div style=""font-size:60px;"">+</div>","null","html-keyboard-response","25","171698","0.0-9.0-0.8","dyv47g","Thu Feb 11 2021 18:09:16 GMT+0100 (Centraleuropæisk normaltid)","2021","2","11","18","9","16","lwp1234","22","female","right","67","50","50","10","1","","","","","fixation","","","",""
"500.6099999882281","img/image_stim_f_stroop.png","70","image-keyboard-response","26","172200","0.0-9.0-1.8","dyv47g","Thu Feb 11 2021 18:09:16 GMT+0100 (Centraleuropæisk normaltid)","2021","2","11","18","9","16","lwp1234","22","female","right","67","50","50","10","1","","","","","test","fear","happy","f","true"
"null","<div style=""font-size:60px;"">+</div>","null","html-keyboard-response","27","173207","0.0-9.0-0.9","dyv47g","Thu Feb 11 2021 18:09:16 GMT+0100 (Centraleuropæisk normaltid)","2021","2","11","18","9","16","lwp1234","22","female","right","67","50","50","10","1","","","","","fixation","","","",""
"663.5849999729544","img/image_stim_h_stroop.png","72","image-keyboard-response","28","173872","0.0-9.0-1.9","dyv47g","Thu Feb 11 2021 18:09:16 GMT+0100 (Centraleuropæisk normaltid)","2021","2","11","18","9","16","lwp1234","22","female","right","67","50","50","10","1","","","","","test","happy","fear","h","true"
"null","<div style=""font-size:60px;"">+</div>","null","html-keyboard-response","29","174374","0.0-9.0-0.10","dyv47g","Thu Feb 11 2021 18:09:16 GMT+0100 (Centraleuropæisk normaltid)","2021","2","11","18","9","16","lwp1234","22","female","right","67","50","50","10","1","","","","","fixation","","","",""
"522.510000038892","img/image_stim_f.png","70","image-keyboard-response","30","174898","0.0-9.0-1.10","dyv47g","Thu Feb 11 2021 18:09:16 GMT+0100 (Centraleuropæisk normaltid)","2021","2","11","18","9","16","lwp1234","22","female","right","67","50","50","10","1","","","","","test","fear","fear","f","true"
"null","<div style=""font-size:60px;"">+</div>","null","html-keyboard-response","31","175152","0.0-9.0-0.11","dyv47g","Thu Feb 11 2021 18:09:16 GMT+0100 (Centraleuropæisk normaltid)","2021","2","11","18","9","16","lwp1234","22","female","right","67","50","50","10","1","","","","","fixation","","","",""
"427.05499997828156","img/image_stim_h.png","72","image-keyboard-response","32","175581","0.0-9.0-1.11","dyv47g","Thu Feb 11 2021 18:09:16 GMT+0100 (Centraleuropæisk normaltid)","2021","2","11","18","9","16","lwp1234","22","female","right","67","50","50","10","1","","","","","test","happy","happy","h","true"
"null","<div style=""font-size:60px;"">+</div>","null","html-keyboard-response","33","175835","0.0-9.0-0.12","dyv47g","Thu Feb 11 2021 18:09:16 GMT+0100 (Centraleuropæisk normaltid)","2021","2","11","18","9","16","lwp1234","22","female","right","67","50","50","10","1","","","","","fixation","","","",""
"406.7950000753626","img/image_stim_h_stroop.png","72","image-keyboard-response","34","176243","0.0-9.0-1.12","dyv47g","Thu Feb 11 2021 18:09:16 GMT+0100 (Centraleuropæisk normaltid)","2021","2","11","18","9","16","lwp1234","22","female","right","67","50","50","10","1","","","","","test","happy","fear","h","true"
"null","<div style=""font-size:60px;"">+</div>","null","html-keyboard-response","35","176748","0.0-9.0-0.13","dyv47g","Thu Feb 11 2021 18:09:16 GMT+0100 (Centraleuropæisk normaltid)","2021","2","11","18","9","16","lwp1234","22","female","right","67","50","50","10","1","","","","","fixation","","","",""
"510.4150000261143","img/image_stim_f_stroop.png","70","image-keyboard-response","36","177260","0.0-9.0-1.13","dyv47g","Thu Feb 11 2021 18:09:16 GMT+0100 (Centraleuropæisk normaltid)","2021","2","11","18","9","16","lwp1234","22","female","right","67","50","50","10","1","","","","","test","fear","happy","f","true"
"null","<div style=""font-size:60px;"">+</div>","null","html-keyboard-response","37","178517","0.0-9.0-0.14","dyv47g","Thu Feb 11 2021 18:09:16 GMT+0100 (Centraleuropæisk normaltid)","2021","2","11","18","9","16","lwp1234","22","female","right","67","50","50","10","1","","","","","fixation","","","",""
"337.7450000261888","img/image_stim_f.png","72","image-keyboard-response","38","178856","0.0-9.0-1.14","dyv47g","Thu Feb 11 2021 18:09:16 GMT+0100 (Centraleuropæisk normaltid)","2021","2","11","18","9","16","lwp1234","22","female","right","67","50","50","10","1","","","","","test","fear","fear","f","false"
"null","<div style=""font-size:60px;"">+</div>","null","html-keyboard-response","39","180863","0.0-9.0-0.15","dyv47g","Thu Feb 11 2021 18:09:16 GMT+0100 (Centraleuropæisk normaltid)","2021","2","11","18","9","16","lwp1234","22","female","right","67","50","50","10","1","","","","","fixation","","","",""
"597.3549999762326","img/image_stim_h.png","72","image-keyboard-response","40","181462","0.0-9.0-1.15","dyv47g","Thu Feb 11 2021 18:09:16 GMT+0100 (Centraleuropæisk normaltid)","2021","2","11","18","9","16","lwp1234","22","female","right","67","50","50","10","1","","","","","test","happy","happy","h","true"
"null","<div style=""font-size:60px;"">+</div>","null","html-keyboard-response","41","182965","0.0-9.0-0.16","dyv47g","Thu Feb 11 2021 18:09:16 GMT+0100 (Centraleuropæisk normaltid)","2021","2","11","18","9","16","lwp1234","22","female","right","67","50","50","10","1","","","","","fixation","","","",""
"463.60499993897974","img/image_stim_f_stroop.png","72","image-keyboard-response","42","183430","0.0-9.0-1.16","dyv47g","Thu Feb 11 2021 18:09:16 GMT+0100 (Centraleuropæisk normaltid)","2021","2","11","18","9","16","lwp1234","22","female","right","67","50","50","10","1","","","","","test","fear","happy","f","false"
"null","<div style=""font-size:60px;"">+</div>","null","html-keyboard-response","43","184437","0.0-9.0-0.17","dyv47g","Thu Feb 11 2021 18:09:16 GMT+0100 (Centraleuropæisk normaltid)","2021","2","11","18","9","16","lwp1234","22","female","right","67","50","50","10","1","","","","","fixation","","","",""
"895.2949999365956","img/image_stim_h_stroop.png","70","image-keyboard-response","44","185333","0.0-9.0-1.17","dyv47g","Thu Feb 11 2021 18:09:16 GMT+0100 (Centraleuropæisk normaltid)","2021","2","11","18","9","16","lwp1234","22","female","right","67","50","50","10","1","","","","","test","happy","fear","h","false"
"null","<div style=""font-size:60px;"">+</div>","null","html-keyboard-response","45","186337","0.0-9.0-0.18","dyv47g","Thu Feb 11 2021 18:09:16 GMT+0100 (Centraleuropæisk normaltid)","2021","2","11","18","9","16","lwp1234","22","female","right","67","50","50","10","1","","","","","fixation","","","",""
"682.5149999931455","img/image_stim_h.png","72","image-keyboard-response","46","187021","0.0-9.0-1.18","dyv47g","Thu Feb 11 2021 18:09:16 GMT+0100 (Centraleuropæisk normaltid)","2021","2","11","18","9","16","lwp1234","22","female","right","67","50","50","10","1","","","","","test","happy","happy","h","true"
"null","<div style=""font-size:60px;"">+</div>","null","html-keyboard-response","47","188774","0.0-9.0-0.19","dyv47g","Thu Feb 11 2021 18:09:16 GMT+0100 (Centraleuropæisk normaltid)","2021","2","11","18","9","16","lwp1234","22","female","right","67","50","50","10","1","","","","","fixation","","","",""
"648.1449999846518","img/image_stim_f.png","70","image-keyboard-response","48","189423","0.0-9.0-1.19","dyv47g","Thu Feb 11 2021 18:09:16 GMT+0100 (Centraleuropæisk normaltid)","2021","2","11","18","9","16","lwp1234","22","female","right","67","50","50","10","1","","","","","test","fear","fear","f","true"
"null","<div style=""font-size:60px;"">+</div>","null","html-keyboard-response","49","189678","0.0-9.0-0.20","dyv47g","Thu Feb 11 2021 18:09:16 GMT+0100 (Centraleuropæisk normaltid)","2021","2","11","18","9","16","lwp1234","22","female","right","67","50","50","10","1","","","","","fixation","","","",""
"509.57500003278255","img/image_stim_h_stroop.png","72","image-keyboard-response","50","190188","0.0-9.0-1.20","dyv47g","Thu Feb 11 2021 18:09:16 GMT+0100 (Centraleuropæisk normaltid)","2021","2","11","18","9","16","lwp1234","22","female","right","67","50","50","10","1","","","","","test","happy","fear","h","true"
"null","<div style=""font-size:60px;"">+</div>","null","html-keyboard-response","51","190946","0.0-9.0-0.21","dyv47g","Thu Feb 11 2021 18:09:16 GMT+0100 (Centraleuropæisk normaltid)","2021","2","11","18","9","16","lwp1234","22","female","right","67","50","50","10","1","","","","","fixation","","","",""
"478.89500006567687","img/image_stim_f_stroop.png","70","image-keyboard-response","52","191426","0.0-9.0-1.21","dyv47g","Thu Feb 11 2021 18:09:16 GMT+0100 (Centraleuropæisk normaltid)","2021","2","11","18","9","16","lwp1234","22","female","right","67","50","50","10","1","","","","","test","fear","happy","f","true"
"null","<div style=""font-size:60px;"">+</div>","null","html-keyboard-response","53","191931","0.0-9.0-0.22","dyv47g","Thu Feb 11 2021 18:09:16 GMT+0100 (Centraleuropæisk normaltid)","2021","2","11","18","9","16","lwp1234","22","female","right","67","50","50","10","1","","","","","fixation","","","",""
"1486.0799999441952","img/image_stim_h.png","72","image-keyboard-response","54","193418","0.0-9.0-1.22","dyv47g","Thu Feb 11 2021 18:09:16 GMT+0100 (Centraleuropæisk normaltid)","2021","2","11","18","9","16","lwp1234","22","female","right","67","50","50","10","1","","","","","test","happy","happy","h","true"
"null","<div style=""font-size:60px;"">+</div>","null","html-keyboard-response","55","194923","0.0-9.0-0.23","dyv47g","Thu Feb 11 2021 18:09:16 GMT+0100 (Centraleuropæisk normaltid)","2021","2","11","18","9","16","lwp1234","22","female","right","67","50","50","10","1","","","","","fixation","","","",""
"473.43500005081296","img/image_stim_f.png","70","image-keyboard-response","56","195398","0.0-9.0-1.23","dyv47g","Thu Feb 11 2021 18:09:16 GMT+0100 (Centraleuropæisk normaltid)","2021","2","11","18","9","16","lwp1234","22","female","right","67","50","50","10","1","","","","","test","fear","fear","f","true"
"null","<div style=""font-size:60px;"">+</div>","null","html-keyboard-response","57","197401","0.0-9.0-0.24","dyv47g","Thu Feb 11 2021 18:09:16 GMT+0100 (Centraleuropæisk normaltid)","2021","2","11","18","9","16","lwp1234","22","female","right","67","50","50","10","1","","","","","fixation","","","",""
"428.19999996572733","img/image_stim_f_stroop.png","70","image-keyboard-response","58","197831","0.0-9.0-1.24","dyv47g","Thu Feb 11 2021 18:09:16 GMT+0100 (Centraleuropæisk normaltid)","2021","2","11","18","9","16","lwp1234","22","female","right","67","50","50","10","1","","","","","test","fear","happy","f","true"
"null","<div style=""font-size:60px;"">+</div>","null","html-keyboard-response","59","199338","0.0-9.0-0.25","dyv47g","Thu Feb 11 2021 18:09:16 GMT+0100 (Centraleuropæisk normaltid)","2021","2","11","18","9","16","lwp1234","22","female","right","67","50","50","10","1","","","","","fixation","","","",""
"455.394999939017","img/image_stim_h.png","72","image-keyboard-response","60","199795","0.0-9.0-1.25","dyv47g","Thu Feb 11 2021 18:09:16 GMT+0100 (Centraleuropæisk normaltid)","2021","2","11","18","9","16","lwp1234","22","female","right","67","50","50","10","1","","","","","test","happy","happy","h","true"
"null","<div style=""font-size:60px;"">+</div>","null","html-keyboard-response","61","200048","0.0-9.0-0.26","dyv47g","Thu Feb 11 2021 18:09:16 GMT+0100 (Centraleuropæisk normaltid)","2021","2","11","18","9","16","lwp1234","22","female","right","67","50","50","10","1","","","","","fixation","","","",""
"397.75499992538244","img/image_stim_h_stroop.png","72","image-keyboard-response","62","200447","0.0-9.0-1.26","dyv47g","Thu Feb 11 2021 18:09:16 GMT+0100 (Centraleuropæisk normaltid)","2021","2","11","18","9","16","lwp1234","22","female","right","67","50","50","10","1","","","","","test","happy","fear","h","true"
"null","<div style=""font-size:60px;"">+</div>","null","html-keyboard-response","63","202201","0.0-9.0-0.27","dyv47g","Thu Feb 11 2021 18:09:16 GMT+0100 (Centraleuropæisk normaltid)","2021","2","11","18","9","16","lwp1234","22","female","right","67","50","50","10","1","","","","","fixation","","","",""
"456.46999997552484","img/image_stim_f.png","70","image-keyboard-response","64","202659","0.0-9.0-1.27","dyv47g","Thu Feb 11 2021 18:09:16 GMT+0100 (Centraleuropæisk normaltid)","2021","2","11","18","9","16","lwp1234","22","female","right","67","50","50","10","1","","","","","test","fear","fear","f","true"
"null","<div style=""font-size:60px;"">+</div>","null","html-keyboard-response","65","203915","0.0-9.0-0.28","dyv47g","Thu Feb 11 2021 18:09:16 GMT+0100 (Centraleuropæisk normaltid)","2021","2","11","18","9","16","lwp1234","22","female","right","67","50","50","10","1","","","","","fixation","","","",""
"384.0949999867007","img/image_stim_f.png","72","image-keyboard-response","66","204300","0.0-9.0-1.28","dyv47g","Thu Feb 11 2021 18:09:16 GMT+0100 (Centraleuropæisk normaltid)","2021","2","11","18","9","16","lwp1234","22","female","right","67","50","50","10","1","","","","","test","fear","fear","f","false"
"null","<div style=""font-size:60px;"">+</div>","null","html-keyboard-response","67","205805","0.0-9.0-0.29","dyv47g","Thu Feb 11 2021 18:09:16 GMT+0100 (Centraleuropæisk normaltid)","2021","2","11","18","9","16","lwp1234","22","female","right","67","50","50","10","1","","","","","fixation","","","",""
"648.2099998975173","img/image_stim_f_stroop.png","70","image-keyboard-response","68","206455","0.0-9.0-1.29","dyv47g","Thu Feb 11 2021 18:09:16 GMT+0100 (Centraleuropæisk normaltid)","2021","2","11","18","9","16","lwp1234","22","female","right","67","50","50","10","1","","","","","test","fear","happy","f","true"
"null","<div style=""font-size:60px;"">+</div>","null","html-keyboard-response","69","207464","0.0-9.0-0.30","dyv47g","Thu Feb 11 2021 18:09:16 GMT+0100 (Centraleuropæisk normaltid)","2021","2","11","18","9","16","lwp1234","22","female","right","67","50","50","10","1","","","","","fixation","","","",""
"403.0100000090897","img/image_stim_h.png","72","image-keyboard-response","70","207869","0.0-9.0-1.30","dyv47g","Thu Feb 11 2021 18:09:16 GMT+0100 (Centraleuropæisk normaltid)","2021","2","11","18","9","16","lwp1234","22","female","right","67","50","50","10","1","","","","","test","happy","happy","h","true"
"null","<div style=""font-size:60px;"">+</div>","null","html-keyboard-response","71","209123","0.0-9.0-0.31","dyv47g","Thu Feb 11 2021 18:09:16 GMT+0100 (Centraleuropæisk normaltid)","2021","2","11","18","9","16","lwp1234","22","female","right","67","50","50","10","1","","","","","fixation","","","",""
"811.3700000103563","img/image_stim_h_stroop.png","72","image-keyboard-response","72","209936","0.0-9.0-1.31","dyv47g","Thu Feb 11 2021 18:09:16 GMT+0100 (Centraleuropæisk normaltid)","2021","2","11","18","9","16","lwp1234","22","female","right","67","50","50","10","1","","","","","test","happy","fear","h","true"
"null","<div style=""font-size:60px;"">+</div>","null","html-keyboard-response","73","210190","0.0-9.0-0.32","dyv47g","Thu Feb 11 2021 18:09:16 GMT+0100 (Centraleuropæisk normaltid)","2021","2","11","18","9","16","lwp1234","22","female","right","67","50","50","10","1","","","","","fixation","","","",""
"396.3549999753013","img/image_stim_h_stroop.png","72","image-keyboard-response","74","210588","0.0-9.0-1.32","dyv47g","Thu Feb 11 2021 18:09:16 GMT+0100 (Centraleuropæisk normaltid)","2021","2","11","18","9","16","lwp1234","22","female","right","67","50","50","10","1","","","","","test","happy","fear","h","true"
"null","<div style=""font-size:60px;"">+</div>","null","html-keyboard-response","75","212596","0.0-9.0-0.33","dyv47g","Thu Feb 11 2021 18:09:16 GMT+0100 (Centraleuropæisk normaltid)","2021","2","11","18","9","16","lwp1234","22","female","right","67","50","50","10","1","","","","","fixation","","","",""
"419.54999999143183","img/image_stim_f.png","70","image-keyboard-response","76","213017","0.0-9.0-1.33","dyv47g","Thu Feb 11 2021 18:09:16 GMT+0100 (Centraleuropæisk normaltid)","2021","2","11","18","9","16","lwp1234","22","female","right","67","50","50","10","1","","","","","test","fear","fear","f","true"
"null","<div style=""font-size:60px;"">+</div>","null","html-keyboard-response","77","214774","0.0-9.0-0.34","dyv47g","Thu Feb 11 2021 18:09:16 GMT+0100 (Centraleuropæisk normaltid)","2021","2","11","18","9","16","lwp1234","22","female","right","67","50","50","10","1","","","","","fixation","","","",""
"505.97499997820705","img/image_stim_h.png","72","image-keyboard-response","78","215282","0.0-9.0-1.34","dyv47g","Thu Feb 11 2021 18:09:16 GMT+0100 (Centraleuropæisk normaltid)","2021","2","11","18","9","16","lwp1234","22","female","right","67","50","50","10","1","","","","","test","happy","happy","h","true"
"null","<div style=""font-size:60px;"">+</div>","null","html-keyboard-response","79","216040","0.0-9.0-0.35","dyv47g","Thu Feb 11 2021 18:09:16 GMT+0100 (Centraleuropæisk normaltid)","2021","2","11","18","9","16","lwp1234","22","female","right","67","50","50","10","1","","","","","fixation","","","",""
"589.6999998949468","img/image_stim_f_stroop.png","70","image-keyboard-response","80","216631","0.0-9.0-1.35","dyv47g","Thu Feb 11 2021 18:09:16 GMT+0100 (Centraleuropæisk normaltid)","2021","2","11","18","9","16","lwp1234","22","female","right","67","50","50","10","1","","","","","test","fear","happy","f","true"
