"rt","stimulus","key_press","trial_type","trial_index","time_elapsed","internal_node_id","exp_id","Time","year","month","date","hour","minute","seconds","id","age","Gender","Handedness","mood","fresh","hunger","H_since_Sleep","H_since_Eat","responses","question_order","slider_start","response","test_part","face","word","correct_response","correct"
"3928","<p>Welcome to this experiment on daily rhythms and cognition.</p><p>First you will be asked some questions about yourself.</p><p>Then a short experiment will measure your response time.</p><p>Take the test at different times of the day/night.</p><p>The test is anonymous, but comparing your data across time is important.</p><p>Therefore, please make up and remember a personal ID (two letters+ two numbers).</p><p>Use this ID whenever taking the test.</p><p><strong>Press any key to begin.</strong></p>","32","html-keyboard-response","0","3931","0.0-0.0","mrt09o","Fri Feb 12 2021 01:34:03 GMT+0200 (Eastern European Standard Time)","2021","2","12","1","34","3","lb78","27","male","left","99","50","97","15","0","","","","","","","","",""
"5255","","","survey-text","1","9192","0.0-1.0","mrt09o","Fri Feb 12 2021 01:34:03 GMT+0200 (Eastern European Standard Time)","2021","2","12","1","34","3","lb78","27","male","left","99","50","97","15","0","{""Q0"":""lb78""}","","","","","","","",""
"2382","","","survey-text","2","11579","0.0-2.0","mrt09o","Fri Feb 12 2021 01:34:03 GMT+0200 (Eastern European Standard Time)","2021","2","12","1","34","3","lb78","27","male","left","99","50","97","15","0","{""Q0"":""27""}","","","","","","","",""
"5533","","","survey-multi-select","3","17118","0.0-3.0","mrt09o","Fri Feb 12 2021 01:34:03 GMT+0200 (Eastern European Standard Time)","2021","2","12","1","34","3","lb78","27","male","left","99","50","97","15","0","{""Gender"":[""male""],""Hand"":[""left""]}","[0,1]","","","","","","",""
"8405","<p>How Sad/Angry or Happy are you right now?</p>","","html-slider-response","4","25528","0.0-4.0","mrt09o","Fri Feb 12 2021 01:34:03 GMT+0200 (Eastern European Standard Time)","2021","2","12","1","34","3","lb78","27","male","left","99","50","97","15","0","","","50","99","","","","",""
"14308","<p>How Tired/Sleepy/Distracted or Fresh/Awake/Alert are you right now?</p>","","html-slider-response","5","39838","0.0-5.0","mrt09o","Fri Feb 12 2021 01:34:03 GMT+0200 (Eastern European Standard Time)","2021","2","12","1","34","3","lb78","27","male","left","99","50","97","15","0","","","50","50","","","","",""
"6020","<p>How Hungry or Satiated are you right now?</p>","","html-slider-response","6","45859","0.0-6.0","mrt09o","Fri Feb 12 2021 01:34:03 GMT+0200 (Eastern European Standard Time)","2021","2","12","1","34","3","lb78","27","male","left","99","50","97","15","0","","","50","97","","","","",""
"43580","","","survey-multi-select","7","89453","0.0-7.0","mrt09o","Fri Feb 12 2021 01:34:03 GMT+0200 (Eastern European Standard Time)","2021","2","12","1","34","3","lb78","27","male","left","99","50","97","15","0","{""Sleep"":[""15""],""Eat"":[""0""]}","[0,1]","","","","","","",""
"23515","<p>In this experiment, a face and a word will appear in the center of the screen.</p><p>If the face is <strong>happy</strong>, press the letter <strong>H</strong> with <strong>right</strong> index finger.</p><p>If the face is <strong>fearful</strong>, press the letter <strong>F</strong> with <strong>left</strong> index finger.</p><p><strong>Ignore the written words</strong>. Respond as fast as possible while being correct. </p><div style='width: 900px;'><div style='float: left;'><img src='img/stimuli_stroop_happy.png'></img><p class='small'><strong>Press the H key for happy faces</strong></p></div><div class='float: right;'><img src='img/stimuli_stroop_fear.png'></img><p class='small'><strong>Press the F key for faces with fear</strong></p></div></div><p>If the screen turns blank, press <strong>SPACE</strong></p><p><strong>Press any key to begin.</strong></p>","72","html-keyboard-response","8","112970","0.0-8.0","mrt09o","Fri Feb 12 2021 01:34:03 GMT+0200 (Eastern European Standard Time)","2021","2","12","1","34","3","lb78","27","male","left","99","50","97","15","0","","","","","","","","",""
"null","<div style=""font-size:60px;"">+</div>","null","html-keyboard-response","9","115738","0.0-9.0-0.0","mrt09o","Fri Feb 12 2021 01:34:03 GMT+0200 (Eastern European Standard Time)","2021","2","12","1","34","3","lb78","27","male","left","99","50","97","15","0","","","","","fixation","","","",""
"2015","img/image_stim_f_stroop.png","70","image-keyboard-response","10","117786","0.0-9.0-1.0","mrt09o","Fri Feb 12 2021 01:34:03 GMT+0200 (Eastern European Standard Time)","2021","2","12","1","34","3","lb78","27","male","left","99","50","97","15","0","","","","","test","fear","happy","f","true"
"null","<div style=""font-size:60px;"">+</div>","null","html-keyboard-response","11","119050","0.0-9.0-0.1","mrt09o","Fri Feb 12 2021 01:34:03 GMT+0200 (Eastern European Standard Time)","2021","2","12","1","34","3","lb78","27","male","left","99","50","97","15","0","","","","","fixation","","","",""
"877","img/image_stim_h_stroop.png","72","image-keyboard-response","12","119930","0.0-9.0-1.1","mrt09o","Fri Feb 12 2021 01:34:03 GMT+0200 (Eastern European Standard Time)","2021","2","12","1","34","3","lb78","27","male","left","99","50","97","15","0","","","","","test","happy","fear","h","true"
"null","<div style=""font-size:60px;"">+</div>","null","html-keyboard-response","13","120447","0.0-9.0-0.2","mrt09o","Fri Feb 12 2021 01:34:03 GMT+0200 (Eastern European Standard Time)","2021","2","12","1","34","3","lb78","27","male","left","99","50","97","15","0","","","","","fixation","","","",""
"632","img/image_stim_h.png","72","image-keyboard-response","14","121083","0.0-9.0-1.2","mrt09o","Fri Feb 12 2021 01:34:03 GMT+0200 (Eastern European Standard Time)","2021","2","12","1","34","3","lb78","27","male","left","99","50","97","15","0","","","","","test","happy","happy","h","true"
"null","<div style=""font-size:60px;"">+</div>","null","html-keyboard-response","15","121341","0.0-9.0-0.3","mrt09o","Fri Feb 12 2021 01:34:03 GMT+0200 (Eastern European Standard Time)","2021","2","12","1","34","3","lb78","27","male","left","99","50","97","15","0","","","","","fixation","","","",""
"985","img/image_stim_f.png","70","image-keyboard-response","16","122330","0.0-9.0-1.3","mrt09o","Fri Feb 12 2021 01:34:03 GMT+0200 (Eastern European Standard Time)","2021","2","12","1","34","3","lb78","27","male","left","99","50","97","15","0","","","","","test","fear","fear","f","true"
"null","<div style=""font-size:60px;"">+</div>","null","html-keyboard-response","17","124344","0.0-9.0-0.4","mrt09o","Fri Feb 12 2021 01:34:03 GMT+0200 (Eastern European Standard Time)","2021","2","12","1","34","3","lb78","27","male","left","99","50","97","15","0","","","","","fixation","","","",""
"880","img/image_stim_f_stroop.png","70","image-keyboard-response","18","125225","0.0-9.0-1.4","mrt09o","Fri Feb 12 2021 01:34:03 GMT+0200 (Eastern European Standard Time)","2021","2","12","1","34","3","lb78","27","male","left","99","50","97","15","0","","","","","test","fear","happy","f","true"
"null","<div style=""font-size:60px;"">+</div>","null","html-keyboard-response","19","125980","0.0-9.0-0.5","mrt09o","Fri Feb 12 2021 01:34:03 GMT+0200 (Eastern European Standard Time)","2021","2","12","1","34","3","lb78","27","male","left","99","50","97","15","0","","","","","fixation","","","",""
"621","img/image_stim_h_stroop.png","72","image-keyboard-response","20","126602","0.0-9.0-1.5","mrt09o","Fri Feb 12 2021 01:34:03 GMT+0200 (Eastern European Standard Time)","2021","2","12","1","34","3","lb78","27","male","left","99","50","97","15","0","","","","","test","happy","fear","h","true"
"null","<div style=""font-size:60px;"">+</div>","null","html-keyboard-response","21","127616","0.0-9.0-0.6","mrt09o","Fri Feb 12 2021 01:34:03 GMT+0200 (Eastern European Standard Time)","2021","2","12","1","34","3","lb78","27","male","left","99","50","97","15","0","","","","","fixation","","","",""
"520","img/image_stim_f.png","70","image-keyboard-response","22","128138","0.0-9.0-1.6","mrt09o","Fri Feb 12 2021 01:34:03 GMT+0200 (Eastern European Standard Time)","2021","2","12","1","34","3","lb78","27","male","left","99","50","97","15","0","","","","","test","fear","fear","f","true"
"null","<div style=""font-size:60px;"">+</div>","null","html-keyboard-response","23","129896","0.0-9.0-0.7","mrt09o","Fri Feb 12 2021 01:34:03 GMT+0200 (Eastern European Standard Time)","2021","2","12","1","34","3","lb78","27","male","left","99","50","97","15","0","","","","","fixation","","","",""
"578","img/image_stim_h.png","72","image-keyboard-response","24","130475","0.0-9.0-1.7","mrt09o","Fri Feb 12 2021 01:34:03 GMT+0200 (Eastern European Standard Time)","2021","2","12","1","34","3","lb78","27","male","left","99","50","97","15","0","","","","","test","happy","happy","h","true"
"null","<div style=""font-size:60px;"">+</div>","null","html-keyboard-response","25","130980","0.0-9.0-0.8","mrt09o","Fri Feb 12 2021 01:34:03 GMT+0200 (Eastern European Standard Time)","2021","2","12","1","34","3","lb78","27","male","left","99","50","97","15","0","","","","","fixation","","","",""
"581","img/image_stim_f.png","70","image-keyboard-response","26","131562","0.0-9.0-1.8","mrt09o","Fri Feb 12 2021 01:34:03 GMT+0200 (Eastern European Standard Time)","2021","2","12","1","34","3","lb78","27","male","left","99","50","97","15","0","","","","","test","fear","fear","f","true"
"null","<div style=""font-size:60px;"">+</div>","null","html-keyboard-response","27","132317","0.0-9.0-0.9","mrt09o","Fri Feb 12 2021 01:34:03 GMT+0200 (Eastern European Standard Time)","2021","2","12","1","34","3","lb78","27","male","left","99","50","97","15","0","","","","","fixation","","","",""
"763","img/image_stim_h_stroop.png","72","image-keyboard-response","28","133082","0.0-9.0-1.9","mrt09o","Fri Feb 12 2021 01:34:03 GMT+0200 (Eastern European Standard Time)","2021","2","12","1","34","3","lb78","27","male","left","99","50","97","15","0","","","","","test","happy","fear","h","true"
"null","<div style=""font-size:60px;"">+</div>","null","html-keyboard-response","29","133842","0.0-9.0-0.10","mrt09o","Fri Feb 12 2021 01:34:03 GMT+0200 (Eastern European Standard Time)","2021","2","12","1","34","3","lb78","27","male","left","99","50","97","15","0","","","","","fixation","","","",""
"871","img/image_stim_f_stroop.png","70","image-keyboard-response","30","134714","0.0-9.0-1.10","mrt09o","Fri Feb 12 2021 01:34:03 GMT+0200 (Eastern European Standard Time)","2021","2","12","1","34","3","lb78","27","male","left","99","50","97","15","0","","","","","test","fear","happy","f","true"
"null","<div style=""font-size:60px;"">+</div>","null","html-keyboard-response","31","136230","0.0-9.0-0.11","mrt09o","Fri Feb 12 2021 01:34:03 GMT+0200 (Eastern European Standard Time)","2021","2","12","1","34","3","lb78","27","male","left","99","50","97","15","0","","","","","fixation","","","",""
"673","img/image_stim_h.png","72","image-keyboard-response","32","136906","0.0-9.0-1.11","mrt09o","Fri Feb 12 2021 01:34:03 GMT+0200 (Eastern European Standard Time)","2021","2","12","1","34","3","lb78","27","male","left","99","50","97","15","0","","","","","test","happy","happy","h","true"
"null","<div style=""font-size:60px;"">+</div>","null","html-keyboard-response","33","137659","0.0-9.0-0.12","mrt09o","Fri Feb 12 2021 01:34:03 GMT+0200 (Eastern European Standard Time)","2021","2","12","1","34","3","lb78","27","male","left","99","50","97","15","0","","","","","fixation","","","",""
"783","img/image_stim_h_stroop.png","72","image-keyboard-response","34","138442","0.0-9.0-1.12","mrt09o","Fri Feb 12 2021 01:34:03 GMT+0200 (Eastern European Standard Time)","2021","2","12","1","34","3","lb78","27","male","left","99","50","97","15","0","","","","","test","happy","fear","h","true"
"null","<div style=""font-size:60px;"">+</div>","null","html-keyboard-response","35","140204","0.0-9.0-0.13","mrt09o","Fri Feb 12 2021 01:34:03 GMT+0200 (Eastern European Standard Time)","2021","2","12","1","34","3","lb78","27","male","left","99","50","97","15","0","","","","","fixation","","","",""
"588","img/image_stim_f.png","70","image-keyboard-response","36","140794","0.0-9.0-1.13","mrt09o","Fri Feb 12 2021 01:34:03 GMT+0200 (Eastern European Standard Time)","2021","2","12","1","34","3","lb78","27","male","left","99","50","97","15","0","","","","","test","fear","fear","f","true"
"null","<div style=""font-size:60px;"">+</div>","null","html-keyboard-response","37","141298","0.0-9.0-0.14","mrt09o","Fri Feb 12 2021 01:34:03 GMT+0200 (Eastern European Standard Time)","2021","2","12","1","34","3","lb78","27","male","left","99","50","97","15","0","","","","","fixation","","","",""
"551","img/image_stim_f_stroop.png","70","image-keyboard-response","38","141850","0.0-9.0-1.14","mrt09o","Fri Feb 12 2021 01:34:03 GMT+0200 (Eastern European Standard Time)","2021","2","12","1","34","3","lb78","27","male","left","99","50","97","15","0","","","","","test","fear","happy","f","true"
"null","<div style=""font-size:60px;"">+</div>","null","html-keyboard-response","39","142352","0.0-9.0-0.15","mrt09o","Fri Feb 12 2021 01:34:03 GMT+0200 (Eastern European Standard Time)","2021","2","12","1","34","3","lb78","27","male","left","99","50","97","15","0","","","","","fixation","","","",""
"681","img/image_stim_h.png","72","image-keyboard-response","40","143034","0.0-9.0-1.15","mrt09o","Fri Feb 12 2021 01:34:03 GMT+0200 (Eastern European Standard Time)","2021","2","12","1","34","3","lb78","27","male","left","99","50","97","15","0","","","","","test","happy","happy","h","true"
"null","<div style=""font-size:60px;"">+</div>","null","html-keyboard-response","41","144546","0.0-9.0-0.16","mrt09o","Fri Feb 12 2021 01:34:03 GMT+0200 (Eastern European Standard Time)","2021","2","12","1","34","3","lb78","27","male","left","99","50","97","15","0","","","","","fixation","","","",""
"727","img/image_stim_h_stroop.png","72","image-keyboard-response","42","145274","0.0-9.0-1.16","mrt09o","Fri Feb 12 2021 01:34:03 GMT+0200 (Eastern European Standard Time)","2021","2","12","1","34","3","lb78","27","male","left","99","50","97","15","0","","","","","test","happy","fear","h","true"
"null","<div style=""font-size:60px;"">+</div>","null","html-keyboard-response","43","146040","0.0-9.0-0.17","mrt09o","Fri Feb 12 2021 01:34:03 GMT+0200 (Eastern European Standard Time)","2021","2","12","1","34","3","lb78","27","male","left","99","50","97","15","0","","","","","fixation","","","",""
"562","img/image_stim_h.png","72","image-keyboard-response","44","146603","0.0-9.0-1.17","mrt09o","Fri Feb 12 2021 01:34:03 GMT+0200 (Eastern European Standard Time)","2021","2","12","1","34","3","lb78","27","male","left","99","50","97","15","0","","","","","test","happy","happy","h","true"
"null","<div style=""font-size:60px;"">+</div>","null","html-keyboard-response","45","146860","0.0-9.0-0.18","mrt09o","Fri Feb 12 2021 01:34:03 GMT+0200 (Eastern European Standard Time)","2021","2","12","1","34","3","lb78","27","male","left","99","50","97","15","0","","","","","fixation","","","",""
"684","img/image_stim_f_stroop.png","70","image-keyboard-response","46","147546","0.0-9.0-1.18","mrt09o","Fri Feb 12 2021 01:34:03 GMT+0200 (Eastern European Standard Time)","2021","2","12","1","34","3","lb78","27","male","left","99","50","97","15","0","","","","","test","fear","happy","f","true"
"null","<div style=""font-size:60px;"">+</div>","null","html-keyboard-response","47","149562","0.0-9.0-0.19","mrt09o","Fri Feb 12 2021 01:34:03 GMT+0200 (Eastern European Standard Time)","2021","2","12","1","34","3","lb78","27","male","left","99","50","97","15","0","","","","","fixation","","","",""
"687","img/image_stim_f.png","70","image-keyboard-response","48","150251","0.0-9.0-1.19","mrt09o","Fri Feb 12 2021 01:34:03 GMT+0200 (Eastern European Standard Time)","2021","2","12","1","34","3","lb78","27","male","left","99","50","97","15","0","","","","","test","fear","fear","f","true"
"null","<div style=""font-size:60px;"">+</div>","null","html-keyboard-response","49","151265","0.0-9.0-0.20","mrt09o","Fri Feb 12 2021 01:34:03 GMT+0200 (Eastern European Standard Time)","2021","2","12","1","34","3","lb78","27","male","left","99","50","97","15","0","","","","","fixation","","","",""
"695","img/image_stim_f.png","70","image-keyboard-response","50","151962","0.0-9.0-1.20","mrt09o","Fri Feb 12 2021 01:34:03 GMT+0200 (Eastern European Standard Time)","2021","2","12","1","34","3","lb78","27","male","left","99","50","97","15","0","","","","","test","fear","fear","f","true"
"null","<div style=""font-size:60px;"">+</div>","null","html-keyboard-response","51","153969","0.0-9.0-0.21","mrt09o","Fri Feb 12 2021 01:34:03 GMT+0200 (Eastern European Standard Time)","2021","2","12","1","34","3","lb78","27","male","left","99","50","97","15","0","","","","","fixation","","","",""
"696","img/image_stim_f_stroop.png","70","image-keyboard-response","52","154666","0.0-9.0-1.21","mrt09o","Fri Feb 12 2021 01:34:03 GMT+0200 (Eastern European Standard Time)","2021","2","12","1","34","3","lb78","27","male","left","99","50","97","15","0","","","","","test","fear","happy","f","true"
"null","<div style=""font-size:60px;"">+</div>","null","html-keyboard-response","53","156180","0.0-9.0-0.22","mrt09o","Fri Feb 12 2021 01:34:03 GMT+0200 (Eastern European Standard Time)","2021","2","12","1","34","3","lb78","27","male","left","99","50","97","15","0","","","","","fixation","","","",""
"757","img/image_stim_h.png","72","image-keyboard-response","54","156938","0.0-9.0-1.22","mrt09o","Fri Feb 12 2021 01:34:03 GMT+0200 (Eastern European Standard Time)","2021","2","12","1","34","3","lb78","27","male","left","99","50","97","15","0","","","","","test","happy","happy","h","true"
"null","<div style=""font-size:60px;"">+</div>","null","html-keyboard-response","55","158449","0.0-9.0-0.23","mrt09o","Fri Feb 12 2021 01:34:03 GMT+0200 (Eastern European Standard Time)","2021","2","12","1","34","3","lb78","27","male","left","99","50","97","15","0","","","","","fixation","","","",""
"616","img/image_stim_h_stroop.png","72","image-keyboard-response","56","159066","0.0-9.0-1.23","mrt09o","Fri Feb 12 2021 01:34:03 GMT+0200 (Eastern European Standard Time)","2021","2","12","1","34","3","lb78","27","male","left","99","50","97","15","0","","","","","test","happy","fear","h","true"
"null","<div style=""font-size:60px;"">+</div>","null","html-keyboard-response","57","159325","0.0-9.0-0.24","mrt09o","Fri Feb 12 2021 01:34:03 GMT+0200 (Eastern European Standard Time)","2021","2","12","1","34","3","lb78","27","male","left","99","50","97","15","0","","","","","fixation","","","",""
"1115","img/image_stim_h_stroop.png","72","image-keyboard-response","58","160442","0.0-9.0-1.24","mrt09o","Fri Feb 12 2021 01:34:03 GMT+0200 (Eastern European Standard Time)","2021","2","12","1","34","3","lb78","27","male","left","99","50","97","15","0","","","","","test","happy","fear","h","true"
"null","<div style=""font-size:60px;"">+</div>","null","html-keyboard-response","59","161458","0.0-9.0-0.25","mrt09o","Fri Feb 12 2021 01:34:03 GMT+0200 (Eastern European Standard Time)","2021","2","12","1","34","3","lb78","27","male","left","99","50","97","15","0","","","","","fixation","","","",""
"663","img/image_stim_h.png","72","image-keyboard-response","60","162122","0.0-9.0-1.25","mrt09o","Fri Feb 12 2021 01:34:03 GMT+0200 (Eastern European Standard Time)","2021","2","12","1","34","3","lb78","27","male","left","99","50","97","15","0","","","","","test","happy","happy","h","true"
"null","<div style=""font-size:60px;"">+</div>","null","html-keyboard-response","61","163374","0.0-9.0-0.26","mrt09o","Fri Feb 12 2021 01:34:03 GMT+0200 (Eastern European Standard Time)","2021","2","12","1","34","3","lb78","27","male","left","99","50","97","15","0","","","","","fixation","","","",""
"731","img/image_stim_f_stroop.png","70","image-keyboard-response","62","164106","0.0-9.0-1.26","mrt09o","Fri Feb 12 2021 01:34:03 GMT+0200 (Eastern European Standard Time)","2021","2","12","1","34","3","lb78","27","male","left","99","50","97","15","0","","","","","test","fear","happy","f","true"
"null","<div style=""font-size:60px;"">+</div>","null","html-keyboard-response","63","165121","0.0-9.0-0.27","mrt09o","Fri Feb 12 2021 01:34:03 GMT+0200 (Eastern European Standard Time)","2021","2","12","1","34","3","lb78","27","male","left","99","50","97","15","0","","","","","fixation","","","",""
"631","img/image_stim_f.png","70","image-keyboard-response","64","165754","0.0-9.0-1.27","mrt09o","Fri Feb 12 2021 01:34:03 GMT+0200 (Eastern European Standard Time)","2021","2","12","1","34","3","lb78","27","male","left","99","50","97","15","0","","","","","test","fear","fear","f","true"
"null","<div style=""font-size:60px;"">+</div>","null","html-keyboard-response","65","167518","0.0-9.0-0.28","mrt09o","Fri Feb 12 2021 01:34:03 GMT+0200 (Eastern European Standard Time)","2021","2","12","1","34","3","lb78","27","male","left","99","50","97","15","0","","","","","fixation","","","",""
"730","img/image_stim_f_stroop.png","70","image-keyboard-response","66","168249","0.0-9.0-1.28","mrt09o","Fri Feb 12 2021 01:34:03 GMT+0200 (Eastern European Standard Time)","2021","2","12","1","34","3","lb78","27","male","left","99","50","97","15","0","","","","","test","fear","happy","f","true"
"null","<div style=""font-size:60px;"">+</div>","null","html-keyboard-response","67","168507","0.0-9.0-0.29","mrt09o","Fri Feb 12 2021 01:34:03 GMT+0200 (Eastern European Standard Time)","2021","2","12","1","34","3","lb78","27","male","left","99","50","97","15","0","","","","","fixation","","","",""
"734","img/image_stim_f.png","70","image-keyboard-response","68","169242","0.0-9.0-1.29","mrt09o","Fri Feb 12 2021 01:34:03 GMT+0200 (Eastern European Standard Time)","2021","2","12","1","34","3","lb78","27","male","left","99","50","97","15","0","","","","","test","fear","fear","f","true"
"null","<div style=""font-size:60px;"">+</div>","null","html-keyboard-response","69","171246","0.0-9.0-0.30","mrt09o","Fri Feb 12 2021 01:34:03 GMT+0200 (Eastern European Standard Time)","2021","2","12","1","34","3","lb78","27","male","left","99","50","97","15","0","","","","","fixation","","","",""
"698","img/image_stim_h_stroop.png","72","image-keyboard-response","70","171946","0.0-9.0-1.30","mrt09o","Fri Feb 12 2021 01:34:03 GMT+0200 (Eastern European Standard Time)","2021","2","12","1","34","3","lb78","27","male","left","99","50","97","15","0","","","","","test","happy","fear","h","true"
"null","<div style=""font-size:60px;"">+</div>","null","html-keyboard-response","71","172961","0.0-9.0-0.31","mrt09o","Fri Feb 12 2021 01:34:03 GMT+0200 (Eastern European Standard Time)","2021","2","12","1","34","3","lb78","27","male","left","99","50","97","15","0","","","","","fixation","","","",""
"777","img/image_stim_h.png","72","image-keyboard-response","72","173738","0.0-9.0-1.31","mrt09o","Fri Feb 12 2021 01:34:03 GMT+0200 (Eastern European Standard Time)","2021","2","12","1","34","3","lb78","27","male","left","99","50","97","15","0","","","","","test","happy","happy","h","true"
"null","<div style=""font-size:60px;"">+</div>","null","html-keyboard-response","73","175741","0.0-9.0-0.32","mrt09o","Fri Feb 12 2021 01:34:03 GMT+0200 (Eastern European Standard Time)","2021","2","12","1","34","3","lb78","27","male","left","99","50","97","15","0","","","","","fixation","","","",""
"732","img/image_stim_h.png","72","image-keyboard-response","74","176474","0.0-9.0-1.32","mrt09o","Fri Feb 12 2021 01:34:03 GMT+0200 (Eastern European Standard Time)","2021","2","12","1","34","3","lb78","27","male","left","99","50","97","15","0","","","","","test","happy","happy","h","true"
"null","<div style=""font-size:60px;"">+</div>","null","html-keyboard-response","75","177237","0.0-9.0-0.33","mrt09o","Fri Feb 12 2021 01:34:03 GMT+0200 (Eastern European Standard Time)","2021","2","12","1","34","3","lb78","27","male","left","99","50","97","15","0","","","","","fixation","","","",""
"644","img/image_stim_f_stroop.png","70","image-keyboard-response","76","177882","0.0-9.0-1.33","mrt09o","Fri Feb 12 2021 01:34:03 GMT+0200 (Eastern European Standard Time)","2021","2","12","1","34","3","lb78","27","male","left","99","50","97","15","0","","","","","test","fear","happy","f","true"
"null","<div style=""font-size:60px;"">+</div>","null","html-keyboard-response","77","179885","0.0-9.0-0.34","mrt09o","Fri Feb 12 2021 01:34:03 GMT+0200 (Eastern European Standard Time)","2021","2","12","1","34","3","lb78","27","male","left","99","50","97","15","0","","","","","fixation","","","",""
"587","img/image_stim_f.png","70","image-keyboard-response","78","180474","0.0-9.0-1.34","mrt09o","Fri Feb 12 2021 01:34:03 GMT+0200 (Eastern European Standard Time)","2021","2","12","1","34","3","lb78","27","male","left","99","50","97","15","0","","","","","test","fear","fear","f","true"
"null","<div style=""font-size:60px;"">+</div>","null","html-keyboard-response","79","182234","0.0-9.0-0.35","mrt09o","Fri Feb 12 2021 01:34:03 GMT+0200 (Eastern European Standard Time)","2021","2","12","1","34","3","lb78","27","male","left","99","50","97","15","0","","","","","fixation","","","",""
"656","img/image_stim_h_stroop.png","72","image-keyboard-response","80","182890","0.0-9.0-1.35","mrt09o","Fri Feb 12 2021 01:34:03 GMT+0200 (Eastern European Standard Time)","2021","2","12","1","34","3","lb78","27","male","left","99","50","97","15","0","","","","","test","happy","fear","h","true"
