"rt","stimulus","key_press","trial_type","trial_index","time_elapsed","internal_node_id","exp_id","Time","year","month","date","hour","minute","seconds","id","age","Gender","Handedness","mood","fresh","hunger","H_since_Sleep","H_since_Eat","responses","question_order","slider_start","response","test_part","face","word","correct_response","correct"
"2491.5650000039022","<p>Welcome to this experiment on daily rhythms and cognition.</p><p>First you will be asked some questions about yourself.</p><p>Then a short experiment will measure your response time.</p><p>Take the test at different times of the day/night.</p><p>The test is anonymous, but comparing your data across time is important.</p><p>Therefore, please make up and remember a personal ID (two letters+ two numbers).</p><p>Use this ID whenever taking the test.</p><p><strong>Press any key to begin.</strong></p>","32","html-keyboard-response","0","2494","0.0-0.0","ywdy3o","Tue Feb 16 2021 16:10:04 GMT+0100 (Central European Standard Time)","2021","2","16","16","10","4","ii98","22","female","right","34","44","90","8","0","","","","","","","","",""
"41964.22000000166","","","survey-text","1","44465","0.0-1.0","ywdy3o","Tue Feb 16 2021 16:10:04 GMT+0100 (Central European Standard Time)","2021","2","16","16","10","4","ii98","22","female","right","34","44","90","8","0","{""Q0"":""ii98""}","","","","","","","",""
"3761.484999995446","","","survey-text","2","48231","0.0-2.0","ywdy3o","Tue Feb 16 2021 16:10:04 GMT+0100 (Central European Standard Time)","2021","2","16","16","10","4","ii98","22","female","right","34","44","90","8","0","{""Q0"":""22""}","","","","","","","",""
"3023.654999997234","","","survey-multi-select","3","51262","0.0-3.0","ywdy3o","Tue Feb 16 2021 16:10:04 GMT+0100 (Central European Standard Time)","2021","2","16","16","10","4","ii98","22","female","right","34","44","90","8","0","{""Gender"":[""female""],""Hand"":[""right""]}","[0,1]","","","","","","",""
"9059.409999994386","<p>How Sad/Angry or Happy are you right now?</p>","","html-slider-response","4","60325","0.0-4.0","ywdy3o","Tue Feb 16 2021 16:10:04 GMT+0100 (Central European Standard Time)","2021","2","16","16","10","4","ii98","22","female","right","34","44","90","8","0","","","50","34","","","","",""
"16686.789999999746","<p>How Tired/Sleepy/Distracted or Fresh/Awake/Alert are you right now?</p>","","html-slider-response","5","77014","0.0-5.0","ywdy3o","Tue Feb 16 2021 16:10:04 GMT+0100 (Central European Standard Time)","2021","2","16","16","10","4","ii98","22","female","right","34","44","90","8","0","","","50","44","","","","",""
"17058.649999999034","<p>How Hungry or Satiated are you right now?</p>","","html-slider-response","6","94075","0.0-6.0","ywdy3o","Tue Feb 16 2021 16:10:04 GMT+0100 (Central European Standard Time)","2021","2","16","16","10","4","ii98","22","female","right","34","44","90","8","0","","","50","90","","","","",""
"27819.510000001173","","","survey-multi-select","7","121918","0.0-7.0","ywdy3o","Tue Feb 16 2021 16:10:04 GMT+0100 (Central European Standard Time)","2021","2","16","16","10","4","ii98","22","female","right","34","44","90","8","0","{""Sleep"":[""8""],""Eat"":[""0""]}","[0,1]","","","","","","",""
"16999.205000000075","<p>In this experiment, a face and a word will appear in the center of the screen.</p><p>If the face is <strong>happy</strong>, press the letter <strong>H</strong> with <strong>right</strong> index finger.</p><p>If the face is <strong>fearful</strong>, press the letter <strong>F</strong> with <strong>left</strong> index finger.</p><p><strong>Ignore the written words</strong>. Respond as fast as possible while being correct. </p><div style='width: 900px;'><div style='float: left;'><img src='img/stimuli_stroop_happy.png'></img><p class='small'><strong>Press the H key for happy faces</strong></p></div><div class='float: right;'><img src='img/stimuli_stroop_fear.png'></img><p class='small'><strong>Press the F key for faces with fear</strong></p></div></div><p>If the screen turns blank, press <strong>SPACE</strong></p><p><strong>Press any key to begin.</strong></p>","32","html-keyboard-response","8","138920","0.0-8.0","ywdy3o","Tue Feb 16 2021 16:10:04 GMT+0100 (Central European Standard Time)","2021","2","16","16","10","4","ii98","22","female","right","34","44","90","8","0","","","","","","","","",""
"null","<div style=""font-size:60px;"">+</div>","null","html-keyboard-response","9","141176","0.0-9.0-0.0","ywdy3o","Tue Feb 16 2021 16:10:04 GMT+0100 (Central European Standard Time)","2021","2","16","16","10","4","ii98","22","female","right","34","44","90","8","0","","","","","fixation","","","",""
"758.4449999994831","img/image_stim_h_stroop.png","72","image-keyboard-response","10","141949","0.0-9.0-1.0","ywdy3o","Tue Feb 16 2021 16:10:04 GMT+0100 (Central European Standard Time)","2021","2","16","16","10","4","ii98","22","female","right","34","44","90","8","0","","","","","test","happy","fear","h","true"
"null","<div style=""font-size:60px;"">+</div>","null","html-keyboard-response","11","142954","0.0-9.0-0.1","ywdy3o","Tue Feb 16 2021 16:10:04 GMT+0100 (Central European Standard Time)","2021","2","16","16","10","4","ii98","22","female","right","34","44","90","8","0","","","","","fixation","","","",""
"614.7500000006403","img/image_stim_f_stroop.png","70","image-keyboard-response","12","143571","0.0-9.0-1.1","ywdy3o","Tue Feb 16 2021 16:10:04 GMT+0100 (Central European Standard Time)","2021","2","16","16","10","4","ii98","22","female","right","34","44","90","8","0","","","","","test","fear","happy","f","true"
"null","<div style=""font-size:60px;"">+</div>","null","html-keyboard-response","13","145328","0.0-9.0-0.2","ywdy3o","Tue Feb 16 2021 16:10:04 GMT+0100 (Central European Standard Time)","2021","2","16","16","10","4","ii98","22","female","right","34","44","90","8","0","","","","","fixation","","","",""
"714.2099999982747","img/image_stim_f.png","70","image-keyboard-response","14","146044","0.0-9.0-1.2","ywdy3o","Tue Feb 16 2021 16:10:04 GMT+0100 (Central European Standard Time)","2021","2","16","16","10","4","ii98","22","female","right","34","44","90","8","0","","","","","test","fear","fear","f","true"
"null","<div style=""font-size:60px;"">+</div>","null","html-keyboard-response","15","147052","0.0-9.0-0.3","ywdy3o","Tue Feb 16 2021 16:10:04 GMT+0100 (Central European Standard Time)","2021","2","16","16","10","4","ii98","22","female","right","34","44","90","8","0","","","","","fixation","","","",""
"379.5749999990221","img/image_stim_h.png","72","image-keyboard-response","16","147434","0.0-9.0-1.3","ywdy3o","Tue Feb 16 2021 16:10:04 GMT+0100 (Central European Standard Time)","2021","2","16","16","10","4","ii98","22","female","right","34","44","90","8","0","","","","","test","happy","happy","h","true"
"null","<div style=""font-size:60px;"">+</div>","null","html-keyboard-response","17","148189","0.0-9.0-0.4","ywdy3o","Tue Feb 16 2021 16:10:04 GMT+0100 (Central European Standard Time)","2021","2","16","16","10","4","ii98","22","female","right","34","44","90","8","0","","","","","fixation","","","",""
"567.5600000031409","img/image_stim_f.png","70","image-keyboard-response","18","148759","0.0-9.0-1.4","ywdy3o","Tue Feb 16 2021 16:10:04 GMT+0100 (Central European Standard Time)","2021","2","16","16","10","4","ii98","22","female","right","34","44","90","8","0","","","","","test","fear","fear","f","true"
"null","<div style=""font-size:60px;"">+</div>","null","html-keyboard-response","19","150765","0.0-9.0-0.5","ywdy3o","Tue Feb 16 2021 16:10:04 GMT+0100 (Central European Standard Time)","2021","2","16","16","10","4","ii98","22","female","right","34","44","90","8","0","","","","","fixation","","","",""
"562.7349999995204","img/image_stim_f_stroop.png","70","image-keyboard-response","20","151331","0.0-9.0-1.5","ywdy3o","Tue Feb 16 2021 16:10:04 GMT+0100 (Central European Standard Time)","2021","2","16","16","10","4","ii98","22","female","right","34","44","90","8","0","","","","","test","fear","happy","f","true"
"null","<div style=""font-size:60px;"">+</div>","null","html-keyboard-response","21","153085","0.0-9.0-0.6","ywdy3o","Tue Feb 16 2021 16:10:04 GMT+0100 (Central European Standard Time)","2021","2","16","16","10","4","ii98","22","female","right","34","44","90","8","0","","","","","fixation","","","",""
"419.1149999969639","img/image_stim_h.png","72","image-keyboard-response","22","153508","0.0-9.0-1.6","ywdy3o","Tue Feb 16 2021 16:10:04 GMT+0100 (Central European Standard Time)","2021","2","16","16","10","4","ii98","22","female","right","34","44","90","8","0","","","","","test","happy","happy","h","true"
"null","<div style=""font-size:60px;"">+</div>","null","html-keyboard-response","23","153768","0.0-9.0-0.7","ywdy3o","Tue Feb 16 2021 16:10:04 GMT+0100 (Central European Standard Time)","2021","2","16","16","10","4","ii98","22","female","right","34","44","90","8","0","","","","","fixation","","","",""
"673.9600000000792","img/image_stim_h_stroop.png","72","image-keyboard-response","24","154444","0.0-9.0-1.7","ywdy3o","Tue Feb 16 2021 16:10:04 GMT+0100 (Central European Standard Time)","2021","2","16","16","10","4","ii98","22","female","right","34","44","90","8","0","","","","","test","happy","fear","h","true"
"null","<div style=""font-size:60px;"">+</div>","null","html-keyboard-response","25","154702","0.0-9.0-0.8","ywdy3o","Tue Feb 16 2021 16:10:04 GMT+0100 (Central European Standard Time)","2021","2","16","16","10","4","ii98","22","female","right","34","44","90","8","0","","","","","fixation","","","",""
"525.0250000026426","img/image_stim_f_stroop.png","70","image-keyboard-response","26","155230","0.0-9.0-1.8","ywdy3o","Tue Feb 16 2021 16:10:04 GMT+0100 (Central European Standard Time)","2021","2","16","16","10","4","ii98","22","female","right","34","44","90","8","0","","","","","test","fear","happy","f","true"
"null","<div style=""font-size:60px;"">+</div>","null","html-keyboard-response","27","156237","0.0-9.0-0.9","ywdy3o","Tue Feb 16 2021 16:10:04 GMT+0100 (Central European Standard Time)","2021","2","16","16","10","4","ii98","22","female","right","34","44","90","8","0","","","","","fixation","","","",""
"426.6750000024331","img/image_stim_h.png","72","image-keyboard-response","28","156667","0.0-9.0-1.9","ywdy3o","Tue Feb 16 2021 16:10:04 GMT+0100 (Central European Standard Time)","2021","2","16","16","10","4","ii98","22","female","right","34","44","90","8","0","","","","","test","happy","happy","h","true"
"null","<div style=""font-size:60px;"">+</div>","null","html-keyboard-response","29","157424","0.0-9.0-0.10","ywdy3o","Tue Feb 16 2021 16:10:04 GMT+0100 (Central European Standard Time)","2021","2","16","16","10","4","ii98","22","female","right","34","44","90","8","0","","","","","fixation","","","",""
"602.5649999937741","img/image_stim_f.png","70","image-keyboard-response","30","158028","0.0-9.0-1.10","ywdy3o","Tue Feb 16 2021 16:10:04 GMT+0100 (Central European Standard Time)","2021","2","16","16","10","4","ii98","22","female","right","34","44","90","8","0","","","","","test","fear","fear","f","true"
"null","<div style=""font-size:60px;"">+</div>","null","html-keyboard-response","31","159533","0.0-9.0-0.11","ywdy3o","Tue Feb 16 2021 16:10:04 GMT+0100 (Central European Standard Time)","2021","2","16","16","10","4","ii98","22","female","right","34","44","90","8","0","","","","","fixation","","","",""
"493.9749999975902","img/image_stim_h_stroop.png","72","image-keyboard-response","32","160029","0.0-9.0-1.11","ywdy3o","Tue Feb 16 2021 16:10:04 GMT+0100 (Central European Standard Time)","2021","2","16","16","10","4","ii98","22","female","right","34","44","90","8","0","","","","","test","happy","fear","h","true"
"null","<div style=""font-size:60px;"">+</div>","null","html-keyboard-response","33","160287","0.0-9.0-0.12","ywdy3o","Tue Feb 16 2021 16:10:04 GMT+0100 (Central European Standard Time)","2021","2","16","16","10","4","ii98","22","female","right","34","44","90","8","0","","","","","fixation","","","",""
"668.2700000019395","img/image_stim_f.png","70","image-keyboard-response","34","160957","0.0-9.0-1.12","ywdy3o","Tue Feb 16 2021 16:10:04 GMT+0100 (Central European Standard Time)","2021","2","16","16","10","4","ii98","22","female","right","34","44","90","8","0","","","","","test","fear","fear","f","true"
"null","<div style=""font-size:60px;"">+</div>","null","html-keyboard-response","35","161961","0.0-9.0-0.13","ywdy3o","Tue Feb 16 2021 16:10:04 GMT+0100 (Central European Standard Time)","2021","2","16","16","10","4","ii98","22","female","right","34","44","90","8","0","","","","","fixation","","","",""
"629.7550000017509","img/image_stim_h_stroop.png","72","image-keyboard-response","36","162593","0.0-9.0-1.13","ywdy3o","Tue Feb 16 2021 16:10:04 GMT+0100 (Central European Standard Time)","2021","2","16","16","10","4","ii98","22","female","right","34","44","90","8","0","","","","","test","happy","fear","h","true"
"null","<div style=""font-size:60px;"">+</div>","null","html-keyboard-response","37","164600","0.0-9.0-0.14","ywdy3o","Tue Feb 16 2021 16:10:04 GMT+0100 (Central European Standard Time)","2021","2","16","16","10","4","ii98","22","female","right","34","44","90","8","0","","","","","fixation","","","",""
"319.7650000001886","img/image_stim_h.png","72","image-keyboard-response","38","164923","0.0-9.0-1.14","ywdy3o","Tue Feb 16 2021 16:10:04 GMT+0100 (Central European Standard Time)","2021","2","16","16","10","4","ii98","22","female","right","34","44","90","8","0","","","","","test","happy","happy","h","true"
"null","<div style=""font-size:60px;"">+</div>","null","html-keyboard-response","39","165427","0.0-9.0-0.15","ywdy3o","Tue Feb 16 2021 16:10:04 GMT+0100 (Central European Standard Time)","2021","2","16","16","10","4","ii98","22","female","right","34","44","90","8","0","","","","","fixation","","","",""
"451.4800000033574","img/image_stim_f_stroop.png","70","image-keyboard-response","40","165880","0.0-9.0-1.15","ywdy3o","Tue Feb 16 2021 16:10:04 GMT+0100 (Central European Standard Time)","2021","2","16","16","10","4","ii98","22","female","right","34","44","90","8","0","","","","","test","fear","happy","f","true"
"null","<div style=""font-size:60px;"">+</div>","null","html-keyboard-response","41","167640","0.0-9.0-0.16","ywdy3o","Tue Feb 16 2021 16:10:04 GMT+0100 (Central European Standard Time)","2021","2","16","16","10","4","ii98","22","female","right","34","44","90","8","0","","","","","fixation","","","",""
"646.999999997206","img/image_stim_h_stroop.png","72","image-keyboard-response","42","168289","0.0-9.0-1.16","ywdy3o","Tue Feb 16 2021 16:10:04 GMT+0100 (Central European Standard Time)","2021","2","16","16","10","4","ii98","22","female","right","34","44","90","8","0","","","","","test","happy","fear","h","true"
"null","<div style=""font-size:60px;"">+</div>","null","html-keyboard-response","43","169545","0.0-9.0-0.17","ywdy3o","Tue Feb 16 2021 16:10:04 GMT+0100 (Central European Standard Time)","2021","2","16","16","10","4","ii98","22","female","right","34","44","90","8","0","","","","","fixation","","","",""
"438.8099999996484","img/image_stim_h.png","72","image-keyboard-response","44","169986","0.0-9.0-1.17","ywdy3o","Tue Feb 16 2021 16:10:04 GMT+0100 (Central European Standard Time)","2021","2","16","16","10","4","ii98","22","female","right","34","44","90","8","0","","","","","test","happy","happy","h","true"
"null","<div style=""font-size:60px;"">+</div>","null","html-keyboard-response","45","171490","0.0-9.0-0.18","ywdy3o","Tue Feb 16 2021 16:10:04 GMT+0100 (Central European Standard Time)","2021","2","16","16","10","4","ii98","22","female","right","34","44","90","8","0","","","","","fixation","","","",""
"419.30000000138534","img/image_stim_f.png","70","image-keyboard-response","46","171911","0.0-9.0-1.18","ywdy3o","Tue Feb 16 2021 16:10:04 GMT+0100 (Central European Standard Time)","2021","2","16","16","10","4","ii98","22","female","right","34","44","90","8","0","","","","","test","fear","fear","f","true"
"null","<div style=""font-size:60px;"">+</div>","null","html-keyboard-response","47","173419","0.0-9.0-0.19","ywdy3o","Tue Feb 16 2021 16:10:04 GMT+0100 (Central European Standard Time)","2021","2","16","16","10","4","ii98","22","female","right","34","44","90","8","0","","","","","fixation","","","",""
"438.57500000012806","img/image_stim_f_stroop.png","72","image-keyboard-response","48","173859","0.0-9.0-1.19","ywdy3o","Tue Feb 16 2021 16:10:04 GMT+0100 (Central European Standard Time)","2021","2","16","16","10","4","ii98","22","female","right","34","44","90","8","0","","","","","test","fear","happy","f","false"
"null","<div style=""font-size:60px;"">+</div>","null","html-keyboard-response","49","174362","0.0-9.0-0.20","ywdy3o","Tue Feb 16 2021 16:10:04 GMT+0100 (Central European Standard Time)","2021","2","16","16","10","4","ii98","22","female","right","34","44","90","8","0","","","","","fixation","","","",""
"957.3850000015227","img/image_stim_f_stroop.png","70","image-keyboard-response","50","175322","0.0-9.0-1.20","ywdy3o","Tue Feb 16 2021 16:10:04 GMT+0100 (Central European Standard Time)","2021","2","16","16","10","4","ii98","22","female","right","34","44","90","8","0","","","","","test","fear","happy","f","true"
"null","<div style=""font-size:60px;"">+</div>","null","html-keyboard-response","51","175827","0.0-9.0-0.21","ywdy3o","Tue Feb 16 2021 16:10:04 GMT+0100 (Central European Standard Time)","2021","2","16","16","10","4","ii98","22","female","right","34","44","90","8","0","","","","","fixation","","","",""
"493.47999999736203","img/image_stim_f.png","70","image-keyboard-response","52","176322","0.0-9.0-1.21","ywdy3o","Tue Feb 16 2021 16:10:04 GMT+0100 (Central European Standard Time)","2021","2","16","16","10","4","ii98","22","female","right","34","44","90","8","0","","","","","test","fear","fear","f","true"
"null","<div style=""font-size:60px;"">+</div>","null","html-keyboard-response","53","176579","0.0-9.0-0.22","ywdy3o","Tue Feb 16 2021 16:10:04 GMT+0100 (Central European Standard Time)","2021","2","16","16","10","4","ii98","22","female","right","34","44","90","8","0","","","","","fixation","","","",""
"446.32499999715947","img/image_stim_h.png","72","image-keyboard-response","54","177027","0.0-9.0-1.22","ywdy3o","Tue Feb 16 2021 16:10:04 GMT+0100 (Central European Standard Time)","2021","2","16","16","10","4","ii98","22","female","right","34","44","90","8","0","","","","","test","happy","happy","h","true"
"null","<div style=""font-size:60px;"">+</div>","null","html-keyboard-response","55","178285","0.0-9.0-0.23","ywdy3o","Tue Feb 16 2021 16:10:04 GMT+0100 (Central European Standard Time)","2021","2","16","16","10","4","ii98","22","female","right","34","44","90","8","0","","","","","fixation","","","",""
"1300.1750000039465","img/image_stim_h_stroop.png","72","image-keyboard-response","56","179588","0.0-9.0-1.23","ywdy3o","Tue Feb 16 2021 16:10:04 GMT+0100 (Central European Standard Time)","2021","2","16","16","10","4","ii98","22","female","right","34","44","90","8","0","","","","","test","happy","fear","h","true"
"null","<div style=""font-size:60px;"">+</div>","null","html-keyboard-response","57","181346","0.0-9.0-0.24","ywdy3o","Tue Feb 16 2021 16:10:04 GMT+0100 (Central European Standard Time)","2021","2","16","16","10","4","ii98","22","female","right","34","44","90","8","0","","","","","fixation","","","",""
"428.89999999897555","img/image_stim_h.png","72","image-keyboard-response","58","181778","0.0-9.0-1.24","ywdy3o","Tue Feb 16 2021 16:10:04 GMT+0100 (Central European Standard Time)","2021","2","16","16","10","4","ii98","22","female","right","34","44","90","8","0","","","","","test","happy","happy","h","true"
"null","<div style=""font-size:60px;"">+</div>","null","html-keyboard-response","59","182536","0.0-9.0-0.25","ywdy3o","Tue Feb 16 2021 16:10:04 GMT+0100 (Central European Standard Time)","2021","2","16","16","10","4","ii98","22","female","right","34","44","90","8","0","","","","","fixation","","","",""
"445.08499999938067","img/image_stim_f.png","70","image-keyboard-response","60","182983","0.0-9.0-1.25","ywdy3o","Tue Feb 16 2021 16:10:04 GMT+0100 (Central European Standard Time)","2021","2","16","16","10","4","ii98","22","female","right","34","44","90","8","0","","","","","test","fear","fear","f","true"
"null","<div style=""font-size:60px;"">+</div>","null","html-keyboard-response","61","184242","0.0-9.0-0.26","ywdy3o","Tue Feb 16 2021 16:10:04 GMT+0100 (Central European Standard Time)","2021","2","16","16","10","4","ii98","22","female","right","34","44","90","8","0","","","","","fixation","","","",""
"414.359999995213","img/image_stim_h_stroop.png","72","image-keyboard-response","62","184659","0.0-9.0-1.26","ywdy3o","Tue Feb 16 2021 16:10:04 GMT+0100 (Central European Standard Time)","2021","2","16","16","10","4","ii98","22","female","right","34","44","90","8","0","","","","","test","happy","fear","h","true"
"null","<div style=""font-size:60px;"">+</div>","null","html-keyboard-response","63","186415","0.0-9.0-0.27","ywdy3o","Tue Feb 16 2021 16:10:04 GMT+0100 (Central European Standard Time)","2021","2","16","16","10","4","ii98","22","female","right","34","44","90","8","0","","","","","fixation","","","",""
"601.860000002489","img/image_stim_f_stroop.png","70","image-keyboard-response","64","187020","0.0-9.0-1.27","ywdy3o","Tue Feb 16 2021 16:10:04 GMT+0100 (Central European Standard Time)","2021","2","16","16","10","4","ii98","22","female","right","34","44","90","8","0","","","","","test","fear","happy","f","true"
"null","<div style=""font-size:60px;"">+</div>","null","html-keyboard-response","65","188525","0.0-9.0-0.28","ywdy3o","Tue Feb 16 2021 16:10:04 GMT+0100 (Central European Standard Time)","2021","2","16","16","10","4","ii98","22","female","right","34","44","90","8","0","","","","","fixation","","","",""
"443.14500000473345","img/image_stim_h.png","72","image-keyboard-response","66","188971","0.0-9.0-1.28","ywdy3o","Tue Feb 16 2021 16:10:04 GMT+0100 (Central European Standard Time)","2021","2","16","16","10","4","ii98","22","female","right","34","44","90","8","0","","","","","test","happy","happy","h","true"
"null","<div style=""font-size:60px;"">+</div>","null","html-keyboard-response","67","190228","0.0-9.0-0.29","ywdy3o","Tue Feb 16 2021 16:10:04 GMT+0100 (Central European Standard Time)","2021","2","16","16","10","4","ii98","22","female","right","34","44","90","8","0","","","","","fixation","","","",""
"651.0049999997136","img/image_stim_f.png","70","image-keyboard-response","68","190881","0.0-9.0-1.29","ywdy3o","Tue Feb 16 2021 16:10:04 GMT+0100 (Central European Standard Time)","2021","2","16","16","10","4","ii98","22","female","right","34","44","90","8","0","","","","","test","fear","fear","f","true"
"null","<div style=""font-size:60px;"">+</div>","null","html-keyboard-response","69","191892","0.0-9.0-0.30","ywdy3o","Tue Feb 16 2021 16:10:04 GMT+0100 (Central European Standard Time)","2021","2","16","16","10","4","ii98","22","female","right","34","44","90","8","0","","","","","fixation","","","",""
"399.8199999987264","img/image_stim_h_stroop.png","72","image-keyboard-response","70","192295","0.0-9.0-1.30","ywdy3o","Tue Feb 16 2021 16:10:04 GMT+0100 (Central European Standard Time)","2021","2","16","16","10","4","ii98","22","female","right","34","44","90","8","0","","","","","test","happy","fear","h","true"
"null","<div style=""font-size:60px;"">+</div>","null","html-keyboard-response","71","193304","0.0-9.0-0.31","ywdy3o","Tue Feb 16 2021 16:10:04 GMT+0100 (Central European Standard Time)","2021","2","16","16","10","4","ii98","22","female","right","34","44","90","8","0","","","","","fixation","","","",""
"545.0049999999464","img/image_stim_f_stroop.png","70","image-keyboard-response","72","193851","0.0-9.0-1.31","ywdy3o","Tue Feb 16 2021 16:10:04 GMT+0100 (Central European Standard Time)","2021","2","16","16","10","4","ii98","22","female","right","34","44","90","8","0","","","","","test","fear","happy","f","true"
"null","<div style=""font-size:60px;"">+</div>","null","html-keyboard-response","73","195858","0.0-9.0-0.32","ywdy3o","Tue Feb 16 2021 16:10:04 GMT+0100 (Central European Standard Time)","2021","2","16","16","10","4","ii98","22","female","right","34","44","90","8","0","","","","","fixation","","","",""
"1037.3749999998836","img/image_stim_f_stroop.png","70","image-keyboard-response","74","196898","0.0-9.0-1.32","ywdy3o","Tue Feb 16 2021 16:10:04 GMT+0100 (Central European Standard Time)","2021","2","16","16","10","4","ii98","22","female","right","34","44","90","8","0","","","","","test","fear","happy","f","true"
"null","<div style=""font-size:60px;"">+</div>","null","html-keyboard-response","75","198904","0.0-9.0-0.33","ywdy3o","Tue Feb 16 2021 16:10:04 GMT+0100 (Central European Standard Time)","2021","2","16","16","10","4","ii98","22","female","right","34","44","90","8","0","","","","","fixation","","","",""
"574.4600000034552","img/image_stim_f.png","70","image-keyboard-response","76","199480","0.0-9.0-1.33","ywdy3o","Tue Feb 16 2021 16:10:04 GMT+0100 (Central European Standard Time)","2021","2","16","16","10","4","ii98","22","female","right","34","44","90","8","0","","","","","test","fear","fear","f","true"
"null","<div style=""font-size:60px;"">+</div>","null","html-keyboard-response","77","200237","0.0-9.0-0.34","ywdy3o","Tue Feb 16 2021 16:10:04 GMT+0100 (Central European Standard Time)","2021","2","16","16","10","4","ii98","22","female","right","34","44","90","8","0","","","","","fixation","","","",""
"481.260000000475","img/image_stim_h.png","72","image-keyboard-response","78","200720","0.0-9.0-1.34","ywdy3o","Tue Feb 16 2021 16:10:04 GMT+0100 (Central European Standard Time)","2021","2","16","16","10","4","ii98","22","female","right","34","44","90","8","0","","","","","test","happy","happy","h","true"
"null","<div style=""font-size:60px;"">+</div>","null","html-keyboard-response","79","202479","0.0-9.0-0.35","ywdy3o","Tue Feb 16 2021 16:10:04 GMT+0100 (Central European Standard Time)","2021","2","16","16","10","4","ii98","22","female","right","34","44","90","8","0","","","","","fixation","","","",""
"560.4800000000978","img/image_stim_h_stroop.png","72","image-keyboard-response","80","203042","0.0-9.0-1.35","ywdy3o","Tue Feb 16 2021 16:10:04 GMT+0100 (Central European Standard Time)","2021","2","16","16","10","4","ii98","22","female","right","34","44","90","8","0","","","","","test","happy","fear","h","true"
