"rt","stimulus","key_press","trial_type","trial_index","time_elapsed","internal_node_id","exp_id","Time","year","month","date","hour","minute","seconds","id","age","Gender","Handedness","mood","fresh","hunger","H_since_Sleep","H_since_Eat","responses","question_order","slider_start","response","test_part","face","word","correct_response","correct"
"49018.765000015264","<p>Welcome to this experiment on daily rhythms and cognition.</p><p>First you will be asked some questions about yourself.</p><p>Then a short experiment will measure your response time.</p><p>Take the test at different times of the day/night.</p><p>The test is anonymous, but comparing your data across time is important.</p><p>Therefore, please make up and remember a personal ID (two letters+ two numbers).</p><p>Use this ID whenever taking the test.</p><p><strong>Press any key to begin.</strong></p>","32","html-keyboard-response","0","49024","0.0-0.0","lnfevs","Thu Feb 18 2021 12:37:39 GMT+0100 (Centraleuropæisk normaltid)","2021","2","18","12","37","39","mk97","24","male","left","58","53","50","4","2","","","","","","","","",""
"8440.21500000963","","","survey-text","1","57481","0.0-1.0","lnfevs","Thu Feb 18 2021 12:37:39 GMT+0100 (Centraleuropæisk normaltid)","2021","2","18","12","37","39","mk97","24","male","left","58","53","50","4","2","{""Q0"":""mk97""}","","","","","","","",""
"3017.5750000053085","","","survey-text","2","60506","0.0-2.0","lnfevs","Thu Feb 18 2021 12:37:39 GMT+0100 (Centraleuropæisk normaltid)","2021","2","18","12","37","39","mk97","24","male","left","58","53","50","4","2","{""Q0"":""24""}","","","","","","","",""
"7844.725000002654","","","survey-multi-select","3","68364","0.0-3.0","lnfevs","Thu Feb 18 2021 12:37:39 GMT+0100 (Centraleuropæisk normaltid)","2021","2","18","12","37","39","mk97","24","male","left","58","53","50","4","2","{""Gender"":[""male""],""Hand"":[""left""]}","[0,1]","","","","","","",""
"4818.734999978915","<p>How Sad/Angry or Happy are you right now?</p>","","html-slider-response","4","73190","0.0-4.0","lnfevs","Thu Feb 18 2021 12:37:39 GMT+0100 (Centraleuropæisk normaltid)","2021","2","18","12","37","39","mk97","24","male","left","58","53","50","4","2","","","50","58","","","","",""
"6465.044999989914","<p>How Tired/Sleepy/Distracted or Fresh/Awake/Alert are you right now?</p>","","html-slider-response","5","79663","0.0-5.0","lnfevs","Thu Feb 18 2021 12:37:39 GMT+0100 (Centraleuropæisk normaltid)","2021","2","18","12","37","39","mk97","24","male","left","58","53","50","4","2","","","50","53","","","","",""
"3256.105000007665","<p>How Hungry or Satiated are you right now?</p>","","html-slider-response","6","82924","0.0-6.0","lnfevs","Thu Feb 18 2021 12:37:39 GMT+0100 (Centraleuropæisk normaltid)","2021","2","18","12","37","39","mk97","24","male","left","58","53","50","4","2","","","50","50","","","","",""
"38491.299999994226","","","survey-multi-select","7","121475","0.0-7.0","lnfevs","Thu Feb 18 2021 12:37:39 GMT+0100 (Centraleuropæisk normaltid)","2021","2","18","12","37","39","mk97","24","male","left","58","53","50","4","2","{""Sleep"":[""4""],""Eat"":[""2""]}","[0,1]","","","","","","",""
"41801.99999999604","<p>In this experiment, a face and a word will appear in the center of the screen.</p><p>If the face is <strong>happy</strong>, press the letter <strong>H</strong> with <strong>right</strong> index finger.</p><p>If the face is <strong>fearful</strong>, press the letter <strong>F</strong> with <strong>left</strong> index finger.</p><p><strong>Ignore the written words</strong>. Respond as fast as possible while being correct. </p><div style='width: 900px;'><div style='float: left;'><img src='img/stimuli_stroop_happy.png'></img><p class='small'><strong>Press the H key for happy faces</strong></p></div><div class='float: right;'><img src='img/stimuli_stroop_fear.png'></img><p class='small'><strong>Press the F key for faces with fear</strong></p></div></div><p>If the screen turns blank, press <strong>SPACE</strong></p><p><strong>Press any key to begin.</strong></p>","32","html-keyboard-response","8","163283","0.0-8.0","lnfevs","Thu Feb 18 2021 12:37:39 GMT+0100 (Centraleuropæisk normaltid)","2021","2","18","12","37","39","mk97","24","male","left","58","53","50","4","2","","","","","","","","",""
"null","<div style=""font-size:60px;"">+</div>","null","html-keyboard-response","9","165791","0.0-9.0-0.0","lnfevs","Thu Feb 18 2021 12:37:39 GMT+0100 (Centraleuropæisk normaltid)","2021","2","18","12","37","39","mk97","24","male","left","58","53","50","4","2","","","","","fixation","","","",""
"744.524999987334","img/image_stim_f.png","70","image-keyboard-response","10","166586","0.0-9.0-1.0","lnfevs","Thu Feb 18 2021 12:37:39 GMT+0100 (Centraleuropæisk normaltid)","2021","2","18","12","37","39","mk97","24","male","left","58","53","50","4","2","","","","","test","fear","fear","f","true"
"null","<div style=""font-size:60px;"">+</div>","null","html-keyboard-response","11","167595","0.0-9.0-0.1","lnfevs","Thu Feb 18 2021 12:37:39 GMT+0100 (Centraleuropæisk normaltid)","2021","2","18","12","37","39","mk97","24","male","left","58","53","50","4","2","","","","","fixation","","","",""
"519.5249999815132","img/image_stim_h.png","72","image-keyboard-response","12","168123","0.0-9.0-1.1","lnfevs","Thu Feb 18 2021 12:37:39 GMT+0100 (Centraleuropæisk normaltid)","2021","2","18","12","37","39","mk97","24","male","left","58","53","50","4","2","","","","","test","happy","happy","h","true"
"null","<div style=""font-size:60px;"">+</div>","null","html-keyboard-response","13","169636","0.0-9.0-0.2","lnfevs","Thu Feb 18 2021 12:37:39 GMT+0100 (Centraleuropæisk normaltid)","2021","2","18","12","37","39","mk97","24","male","left","58","53","50","4","2","","","","","fixation","","","",""
"966.6649999853689","img/image_stim_h_stroop.png","72","image-keyboard-response","14","170614","0.0-9.0-1.2","lnfevs","Thu Feb 18 2021 12:37:39 GMT+0100 (Centraleuropæisk normaltid)","2021","2","18","12","37","39","mk97","24","male","left","58","53","50","4","2","","","","","test","happy","fear","h","true"
"null","<div style=""font-size:60px;"">+</div>","null","html-keyboard-response","15","171627","0.0-9.0-0.3","lnfevs","Thu Feb 18 2021 12:37:39 GMT+0100 (Centraleuropæisk normaltid)","2021","2","18","12","37","39","mk97","24","male","left","58","53","50","4","2","","","","","fixation","","","",""
"617.9200000187848","img/image_stim_f_stroop.png","70","image-keyboard-response","16","172253","0.0-9.0-1.3","lnfevs","Thu Feb 18 2021 12:37:39 GMT+0100 (Centraleuropæisk normaltid)","2021","2","18","12","37","39","mk97","24","male","left","58","53","50","4","2","","","","","test","fear","happy","f","true"
"null","<div style=""font-size:60px;"">+</div>","null","html-keyboard-response","17","173015","0.0-9.0-0.4","lnfevs","Thu Feb 18 2021 12:37:39 GMT+0100 (Centraleuropæisk normaltid)","2021","2","18","12","37","39","mk97","24","male","left","58","53","50","4","2","","","","","fixation","","","",""
"517.7450000192039","img/image_stim_f_stroop.png","70","image-keyboard-response","18","173541","0.0-9.0-1.4","lnfevs","Thu Feb 18 2021 12:37:39 GMT+0100 (Centraleuropæisk normaltid)","2021","2","18","12","37","39","mk97","24","male","left","58","53","50","4","2","","","","","test","fear","happy","f","true"
"null","<div style=""font-size:60px;"">+</div>","null","html-keyboard-response","19","175550","0.0-9.0-0.5","lnfevs","Thu Feb 18 2021 12:37:39 GMT+0100 (Centraleuropæisk normaltid)","2021","2","18","12","37","39","mk97","24","male","left","58","53","50","4","2","","","","","fixation","","","",""
"453.50999999209307","img/image_stim_h_stroop.png","72","image-keyboard-response","20","176015","0.0-9.0-1.5","lnfevs","Thu Feb 18 2021 12:37:39 GMT+0100 (Centraleuropæisk normaltid)","2021","2","18","12","37","39","mk97","24","male","left","58","53","50","4","2","","","","","test","happy","fear","h","true"
"null","<div style=""font-size:60px;"">+</div>","null","html-keyboard-response","21","176779","0.0-9.0-0.6","lnfevs","Thu Feb 18 2021 12:37:39 GMT+0100 (Centraleuropæisk normaltid)","2021","2","18","12","37","39","mk97","24","male","left","58","53","50","4","2","","","","","fixation","","","",""
"582.2650000045542","img/image_stim_f.png","70","image-keyboard-response","22","177366","0.0-9.0-1.6","lnfevs","Thu Feb 18 2021 12:37:39 GMT+0100 (Centraleuropæisk normaltid)","2021","2","18","12","37","39","mk97","24","male","left","58","53","50","4","2","","","","","test","fear","fear","f","true"
"null","<div style=""font-size:60px;"">+</div>","null","html-keyboard-response","23","178389","0.0-9.0-0.7","lnfevs","Thu Feb 18 2021 12:37:39 GMT+0100 (Centraleuropæisk normaltid)","2021","2","18","12","37","39","mk97","24","male","left","58","53","50","4","2","","","","","fixation","","","",""
"490.0550000020303","img/image_stim_h.png","72","image-keyboard-response","24","178886","0.0-9.0-1.7","lnfevs","Thu Feb 18 2021 12:37:39 GMT+0100 (Centraleuropæisk normaltid)","2021","2","18","12","37","39","mk97","24","male","left","58","53","50","4","2","","","","","test","happy","happy","h","true"
"null","<div style=""font-size:60px;"">+</div>","null","html-keyboard-response","25","179649","0.0-9.0-0.8","lnfevs","Thu Feb 18 2021 12:37:39 GMT+0100 (Centraleuropæisk normaltid)","2021","2","18","12","37","39","mk97","24","male","left","58","53","50","4","2","","","","","fixation","","","",""
"455.06000000750646","img/image_stim_h_stroop.png","72","image-keyboard-response","26","180112","0.0-9.0-1.8","lnfevs","Thu Feb 18 2021 12:37:39 GMT+0100 (Centraleuropæisk normaltid)","2021","2","18","12","37","39","mk97","24","male","left","58","53","50","4","2","","","","","test","happy","fear","h","true"
"null","<div style=""font-size:60px;"">+</div>","null","html-keyboard-response","27","180873","0.0-9.0-0.9","lnfevs","Thu Feb 18 2021 12:37:39 GMT+0100 (Centraleuropæisk normaltid)","2021","2","18","12","37","39","mk97","24","male","left","58","53","50","4","2","","","","","fixation","","","",""
"425.43999999179505","img/image_stim_h.png","72","image-keyboard-response","28","181305","0.0-9.0-1.9","lnfevs","Thu Feb 18 2021 12:37:39 GMT+0100 (Centraleuropæisk normaltid)","2021","2","18","12","37","39","mk97","24","male","left","58","53","50","4","2","","","","","test","happy","happy","h","true"
"null","<div style=""font-size:60px;"">+</div>","null","html-keyboard-response","29","182067","0.0-9.0-0.10","lnfevs","Thu Feb 18 2021 12:37:39 GMT+0100 (Centraleuropæisk normaltid)","2021","2","18","12","37","39","mk97","24","male","left","58","53","50","4","2","","","","","fixation","","","",""
"336.65499999187887","img/image_stim_f.png","70","image-keyboard-response","30","182411","0.0-9.0-1.10","lnfevs","Thu Feb 18 2021 12:37:39 GMT+0100 (Centraleuropæisk normaltid)","2021","2","18","12","37","39","mk97","24","male","left","58","53","50","4","2","","","","","test","fear","fear","f","true"
"null","<div style=""font-size:60px;"">+</div>","null","html-keyboard-response","31","183672","0.0-9.0-0.11","lnfevs","Thu Feb 18 2021 12:37:39 GMT+0100 (Centraleuropæisk normaltid)","2021","2","18","12","37","39","mk97","24","male","left","58","53","50","4","2","","","","","fixation","","","",""
"511.2399999925401","img/image_stim_f_stroop.png","70","image-keyboard-response","32","184187","0.0-9.0-1.11","lnfevs","Thu Feb 18 2021 12:37:39 GMT+0100 (Centraleuropæisk normaltid)","2021","2","18","12","37","39","mk97","24","male","left","58","53","50","4","2","","","","","test","fear","happy","f","true"
"null","<div style=""font-size:60px;"">+</div>","null","html-keyboard-response","33","184950","0.0-9.0-0.12","lnfevs","Thu Feb 18 2021 12:37:39 GMT+0100 (Centraleuropæisk normaltid)","2021","2","18","12","37","39","mk97","24","male","left","58","53","50","4","2","","","","","fixation","","","",""
"451.6650000005029","img/image_stim_h.png","72","image-keyboard-response","34","185409","0.0-9.0-1.12","lnfevs","Thu Feb 18 2021 12:37:39 GMT+0100 (Centraleuropæisk normaltid)","2021","2","18","12","37","39","mk97","24","male","left","58","53","50","4","2","","","","","test","happy","happy","h","true"
"null","<div style=""font-size:60px;"">+</div>","null","html-keyboard-response","35","187171","0.0-9.0-0.13","lnfevs","Thu Feb 18 2021 12:37:39 GMT+0100 (Centraleuropæisk normaltid)","2021","2","18","12","37","39","mk97","24","male","left","58","53","50","4","2","","","","","fixation","","","",""
"412.66500001074746","img/image_stim_h_stroop.png","72","image-keyboard-response","36","187591","0.0-9.0-1.13","lnfevs","Thu Feb 18 2021 12:37:39 GMT+0100 (Centraleuropæisk normaltid)","2021","2","18","12","37","39","mk97","24","male","left","58","53","50","4","2","","","","","test","happy","fear","h","true"
"null","<div style=""font-size:60px;"">+</div>","null","html-keyboard-response","37","188099","0.0-9.0-0.14","lnfevs","Thu Feb 18 2021 12:37:39 GMT+0100 (Centraleuropæisk normaltid)","2021","2","18","12","37","39","mk97","24","male","left","58","53","50","4","2","","","","","fixation","","","",""
"491.6250000242144","img/image_stim_f_stroop.png","70","image-keyboard-response","38","188595","0.0-9.0-1.14","lnfevs","Thu Feb 18 2021 12:37:39 GMT+0100 (Centraleuropæisk normaltid)","2021","2","18","12","37","39","mk97","24","male","left","58","53","50","4","2","","","","","test","fear","happy","f","true"
"null","<div style=""font-size:60px;"">+</div>","null","html-keyboard-response","39","190353","0.0-9.0-0.15","lnfevs","Thu Feb 18 2021 12:37:39 GMT+0100 (Centraleuropæisk normaltid)","2021","2","18","12","37","39","mk97","24","male","left","58","53","50","4","2","","","","","fixation","","","",""
"488.004999991972","img/image_stim_f.png","70","image-keyboard-response","40","190848","0.0-9.0-1.15","lnfevs","Thu Feb 18 2021 12:37:39 GMT+0100 (Centraleuropæisk normaltid)","2021","2","18","12","37","39","mk97","24","male","left","58","53","50","4","2","","","","","test","fear","fear","f","true"
"null","<div style=""font-size:60px;"">+</div>","null","html-keyboard-response","41","191104","0.0-9.0-0.16","lnfevs","Thu Feb 18 2021 12:37:39 GMT+0100 (Centraleuropæisk normaltid)","2021","2","18","12","37","39","mk97","24","male","left","58","53","50","4","2","","","","","fixation","","","",""
"538.4450000128709","img/image_stim_h.png","72","image-keyboard-response","42","191650","0.0-9.0-1.16","lnfevs","Thu Feb 18 2021 12:37:39 GMT+0100 (Centraleuropæisk normaltid)","2021","2","18","12","37","39","mk97","24","male","left","58","53","50","4","2","","","","","test","happy","happy","h","true"
"null","<div style=""font-size:60px;"">+</div>","null","html-keyboard-response","43","192410","0.0-9.0-0.17","lnfevs","Thu Feb 18 2021 12:37:39 GMT+0100 (Centraleuropæisk normaltid)","2021","2","18","12","37","39","mk97","24","male","left","58","53","50","4","2","","","","","fixation","","","",""
"549.8849999858066","img/image_stim_f_stroop.png","70","image-keyboard-response","44","192967","0.0-9.0-1.17","lnfevs","Thu Feb 18 2021 12:37:39 GMT+0100 (Centraleuropæisk normaltid)","2021","2","18","12","37","39","mk97","24","male","left","58","53","50","4","2","","","","","test","fear","happy","f","true"
"null","<div style=""font-size:60px;"">+</div>","null","html-keyboard-response","45","194481","0.0-9.0-0.18","lnfevs","Thu Feb 18 2021 12:37:39 GMT+0100 (Centraleuropæisk normaltid)","2021","2","18","12","37","39","mk97","24","male","left","58","53","50","4","2","","","","","fixation","","","",""
"439.570000016829","img/image_stim_f.png","70","image-keyboard-response","46","194930","0.0-9.0-1.18","lnfevs","Thu Feb 18 2021 12:37:39 GMT+0100 (Centraleuropæisk normaltid)","2021","2","18","12","37","39","mk97","24","male","left","58","53","50","4","2","","","","","test","fear","fear","f","true"
"null","<div style=""font-size:60px;"">+</div>","null","html-keyboard-response","47","196691","0.0-9.0-0.19","lnfevs","Thu Feb 18 2021 12:37:39 GMT+0100 (Centraleuropæisk normaltid)","2021","2","18","12","37","39","mk97","24","male","left","58","53","50","4","2","","","","","fixation","","","",""
"437.06999998539686","img/image_stim_h_stroop.png","72","image-keyboard-response","48","197137","0.0-9.0-1.19","lnfevs","Thu Feb 18 2021 12:37:39 GMT+0100 (Centraleuropæisk normaltid)","2021","2","18","12","37","39","mk97","24","male","left","58","53","50","4","2","","","","","test","happy","fear","h","true"
"null","<div style=""font-size:60px;"">+</div>","null","html-keyboard-response","49","198150","0.0-9.0-0.20","lnfevs","Thu Feb 18 2021 12:37:39 GMT+0100 (Centraleuropæisk normaltid)","2021","2","18","12","37","39","mk97","24","male","left","58","53","50","4","2","","","","","fixation","","","",""
"491.9649999937974","img/image_stim_h.png","72","image-keyboard-response","50","198648","0.0-9.0-1.20","lnfevs","Thu Feb 18 2021 12:37:39 GMT+0100 (Centraleuropæisk normaltid)","2021","2","18","12","37","39","mk97","24","male","left","58","53","50","4","2","","","","","test","happy","happy","h","true"
"null","<div style=""font-size:60px;"">+</div>","null","html-keyboard-response","51","199412","0.0-9.0-0.21","lnfevs","Thu Feb 18 2021 12:37:39 GMT+0100 (Centraleuropæisk normaltid)","2021","2","18","12","37","39","mk97","24","male","left","58","53","50","4","2","","","","","fixation","","","",""
"460.9599999967031","img/image_stim_h_stroop.png","72","image-keyboard-response","52","199880","0.0-9.0-1.21","lnfevs","Thu Feb 18 2021 12:37:39 GMT+0100 (Centraleuropæisk normaltid)","2021","2","18","12","37","39","mk97","24","male","left","58","53","50","4","2","","","","","test","happy","fear","h","true"
"null","<div style=""font-size:60px;"">+</div>","null","html-keyboard-response","53","200144","0.0-9.0-0.22","lnfevs","Thu Feb 18 2021 12:37:39 GMT+0100 (Centraleuropæisk normaltid)","2021","2","18","12","37","39","mk97","24","male","left","58","53","50","4","2","","","","","fixation","","","",""
"483.64500000025146","img/image_stim_f.png","70","image-keyboard-response","54","200635","0.0-9.0-1.22","lnfevs","Thu Feb 18 2021 12:37:39 GMT+0100 (Centraleuropæisk normaltid)","2021","2","18","12","37","39","mk97","24","male","left","58","53","50","4","2","","","","","test","fear","fear","f","true"
"null","<div style=""font-size:60px;"">+</div>","null","html-keyboard-response","55","202146","0.0-9.0-0.23","lnfevs","Thu Feb 18 2021 12:37:39 GMT+0100 (Centraleuropæisk normaltid)","2021","2","18","12","37","39","mk97","24","male","left","58","53","50","4","2","","","","","fixation","","","",""
"455.48500001314096","img/image_stim_f_stroop.png","70","image-keyboard-response","56","202609","0.0-9.0-1.23","lnfevs","Thu Feb 18 2021 12:37:39 GMT+0100 (Centraleuropæisk normaltid)","2021","2","18","12","37","39","mk97","24","male","left","58","53","50","4","2","","","","","test","fear","happy","f","true"
"null","<div style=""font-size:60px;"">+</div>","null","html-keyboard-response","57","203373","0.0-9.0-0.24","lnfevs","Thu Feb 18 2021 12:37:39 GMT+0100 (Centraleuropæisk normaltid)","2021","2","18","12","37","39","mk97","24","male","left","58","53","50","4","2","","","","","fixation","","","",""
"420.36499999812804","img/image_stim_h.png","72","image-keyboard-response","58","203802","0.0-9.0-1.24","lnfevs","Thu Feb 18 2021 12:37:39 GMT+0100 (Centraleuropæisk normaltid)","2021","2","18","12","37","39","mk97","24","male","left","58","53","50","4","2","","","","","test","happy","happy","h","true"
"null","<div style=""font-size:60px;"">+</div>","null","html-keyboard-response","59","204311","0.0-9.0-0.25","lnfevs","Thu Feb 18 2021 12:37:39 GMT+0100 (Centraleuropæisk normaltid)","2021","2","18","12","37","39","mk97","24","male","left","58","53","50","4","2","","","","","fixation","","","",""
"369.5400000142399","img/image_stim_h_stroop.png","72","image-keyboard-response","60","204687","0.0-9.0-1.25","lnfevs","Thu Feb 18 2021 12:37:39 GMT+0100 (Centraleuropæisk normaltid)","2021","2","18","12","37","39","mk97","24","male","left","58","53","50","4","2","","","","","test","happy","fear","h","true"
"null","<div style=""font-size:60px;"">+</div>","null","html-keyboard-response","61","206702","0.0-9.0-0.26","lnfevs","Thu Feb 18 2021 12:37:39 GMT+0100 (Centraleuropæisk normaltid)","2021","2","18","12","37","39","mk97","24","male","left","58","53","50","4","2","","","","","fixation","","","",""
"440.37000002572313","img/image_stim_f_stroop.png","70","image-keyboard-response","62","207150","0.0-9.0-1.26","lnfevs","Thu Feb 18 2021 12:37:39 GMT+0100 (Centraleuropæisk normaltid)","2021","2","18","12","37","39","mk97","24","male","left","58","53","50","4","2","","","","","test","fear","happy","f","true"
"null","<div style=""font-size:60px;"">+</div>","null","html-keyboard-response","63","207915","0.0-9.0-0.27","lnfevs","Thu Feb 18 2021 12:37:39 GMT+0100 (Centraleuropæisk normaltid)","2021","2","18","12","37","39","mk97","24","male","left","58","53","50","4","2","","","","","fixation","","","",""
"360.8900000108406","img/image_stim_f.png","70","image-keyboard-response","64","208284","0.0-9.0-1.27","lnfevs","Thu Feb 18 2021 12:37:39 GMT+0100 (Centraleuropæisk normaltid)","2021","2","18","12","37","39","mk97","24","male","left","58","53","50","4","2","","","","","test","fear","fear","f","true"
"null","<div style=""font-size:60px;"">+</div>","null","html-keyboard-response","65","209301","0.0-9.0-0.28","lnfevs","Thu Feb 18 2021 12:37:39 GMT+0100 (Centraleuropæisk normaltid)","2021","2","18","12","37","39","mk97","24","male","left","58","53","50","4","2","","","","","fixation","","","",""
"434.69999998342246","img/image_stim_f_stroop.png","70","image-keyboard-response","66","209743","0.0-9.0-1.28","lnfevs","Thu Feb 18 2021 12:37:39 GMT+0100 (Centraleuropæisk normaltid)","2021","2","18","12","37","39","mk97","24","male","left","58","53","50","4","2","","","","","test","fear","happy","f","true"
"null","<div style=""font-size:60px;"">+</div>","null","html-keyboard-response","67","210506","0.0-9.0-0.29","lnfevs","Thu Feb 18 2021 12:37:39 GMT+0100 (Centraleuropæisk normaltid)","2021","2","18","12","37","39","mk97","24","male","left","58","53","50","4","2","","","","","fixation","","","",""
"453.54000001680106","img/image_stim_h_stroop.png","72","image-keyboard-response","68","210968","0.0-9.0-1.29","lnfevs","Thu Feb 18 2021 12:37:39 GMT+0100 (Centraleuropæisk normaltid)","2021","2","18","12","37","39","mk97","24","male","left","58","53","50","4","2","","","","","test","happy","fear","h","true"
"null","<div style=""font-size:60px;"">+</div>","null","html-keyboard-response","69","212739","0.0-9.0-0.30","lnfevs","Thu Feb 18 2021 12:37:39 GMT+0100 (Centraleuropæisk normaltid)","2021","2","18","12","37","39","mk97","24","male","left","58","53","50","4","2","","","","","fixation","","","",""
"377.28499999502674","img/image_stim_f.png","72","image-keyboard-response","70","213124","0.0-9.0-1.30","lnfevs","Thu Feb 18 2021 12:37:39 GMT+0100 (Centraleuropæisk normaltid)","2021","2","18","12","37","39","mk97","24","male","left","58","53","50","4","2","","","","","test","fear","fear","f","false"
"null","<div style=""font-size:60px;"">+</div>","null","html-keyboard-response","71","215134","0.0-9.0-0.31","lnfevs","Thu Feb 18 2021 12:37:39 GMT+0100 (Centraleuropæisk normaltid)","2021","2","18","12","37","39","mk97","24","male","left","58","53","50","4","2","","","","","fixation","","","",""
"629.7250000061467","img/image_stim_h.png","72","image-keyboard-response","72","215770","0.0-9.0-1.31","lnfevs","Thu Feb 18 2021 12:37:39 GMT+0100 (Centraleuropæisk normaltid)","2021","2","18","12","37","39","mk97","24","male","left","58","53","50","4","2","","","","","test","happy","happy","h","true"
"null","<div style=""font-size:60px;"">+</div>","null","html-keyboard-response","73","217530","0.0-9.0-0.32","lnfevs","Thu Feb 18 2021 12:37:39 GMT+0100 (Centraleuropæisk normaltid)","2021","2","18","12","37","39","mk97","24","male","left","58","53","50","4","2","","","","","fixation","","","",""
"491.26999999862164","img/image_stim_f_stroop.png","70","image-keyboard-response","74","218033","0.0-9.0-1.32","lnfevs","Thu Feb 18 2021 12:37:39 GMT+0100 (Centraleuropæisk normaltid)","2021","2","18","12","37","39","mk97","24","male","left","58","53","50","4","2","","","","","test","fear","happy","f","true"
"null","<div style=""font-size:60px;"">+</div>","null","html-keyboard-response","75","218796","0.0-9.0-0.33","lnfevs","Thu Feb 18 2021 12:37:39 GMT+0100 (Centraleuropæisk normaltid)","2021","2","18","12","37","39","mk97","24","male","left","58","53","50","4","2","","","","","fixation","","","",""
"463.274999987334","img/image_stim_h_stroop.png","70","image-keyboard-response","76","219266","0.0-9.0-1.33","lnfevs","Thu Feb 18 2021 12:37:39 GMT+0100 (Centraleuropæisk normaltid)","2021","2","18","12","37","39","mk97","24","male","left","58","53","50","4","2","","","","","test","happy","fear","h","false"
"null","<div style=""font-size:60px;"">+</div>","null","html-keyboard-response","77","220279","0.0-9.0-0.34","lnfevs","Thu Feb 18 2021 12:37:39 GMT+0100 (Centraleuropæisk normaltid)","2021","2","18","12","37","39","mk97","24","male","left","58","53","50","4","2","","","","","fixation","","","",""
"651.8050000013318","img/image_stim_h.png","72","image-keyboard-response","78","220941","0.0-9.0-1.34","lnfevs","Thu Feb 18 2021 12:37:39 GMT+0100 (Centraleuropæisk normaltid)","2021","2","18","12","37","39","mk97","24","male","left","58","53","50","4","2","","","","","test","happy","happy","h","true"
"null","<div style=""font-size:60px;"">+</div>","null","html-keyboard-response","79","221205","0.0-9.0-0.35","lnfevs","Thu Feb 18 2021 12:37:39 GMT+0100 (Centraleuropæisk normaltid)","2021","2","18","12","37","39","mk97","24","male","left","58","53","50","4","2","","","","","fixation","","","",""
"640.0150000117719","img/image_stim_f.png","70","image-keyboard-response","80","221852","0.0-9.0-1.35","lnfevs","Thu Feb 18 2021 12:37:39 GMT+0100 (Centraleuropæisk normaltid)","2021","2","18","12","37","39","mk97","24","male","left","58","53","50","4","2","","","","","test","fear","fear","f","true"
