"rt","stimulus","key_press","trial_type","trial_index","time_elapsed","internal_node_id","exp_id","Time","year","month","date","hour","minute","seconds","id","age","Gender","Handedness","mood","fresh","hunger","H_since_Sleep","H_since_Eat","responses","question_order","slider_start","response","test_part","face","word","correct_response","correct"
"1031.9199999994453","<p>Welcome to this experiment on daily rhythms and cognition.</p><p>First you will be asked some questions about yourself.</p><p>Then a short experiment will measure your response time.</p><p>Take the test at different times of the day/night.</p><p>The test is anonymous, but comparing your data across time is important.</p><p>Therefore, please make up and remember a personal ID (two letters+ two numbers).</p><p>Use this ID whenever taking the test.</p><p><strong>Press any key to begin.</strong></p>","32","html-keyboard-response","0","1034","0.0-0.0","koj84l","Sun Feb 14 2021 16:02:15 GMT+0100 (Centraleuropæisk normaltid)","2021","2","14","16","2","15","br00","21","female","right","63","18","10","5","4","","","","","","","","",""
"2311.8750000003274","","","survey-text","1","3355","0.0-1.0","koj84l","Sun Feb 14 2021 16:02:15 GMT+0100 (Centraleuropæisk normaltid)","2021","2","14","16","2","15","br00","21","female","right","63","18","10","5","4","{""Q0"":""br00""}","","","","","","","",""
"2497.755000000325","","","survey-text","2","5856","0.0-2.0","koj84l","Sun Feb 14 2021 16:02:15 GMT+0100 (Centraleuropæisk normaltid)","2021","2","14","16","2","15","br00","21","female","right","63","18","10","5","4","{""Q0"":""21""}","","","","","","","",""
"4093.3350000004793","","","survey-multi-select","3","9955","0.0-3.0","koj84l","Sun Feb 14 2021 16:02:15 GMT+0100 (Centraleuropæisk normaltid)","2021","2","14","16","2","15","br00","21","female","right","63","18","10","5","4","{""Gender"":[""female""],""Hand"":[""right""]}","[0,1]","","","","","","",""
"4882.584999999381","<p>How Sad/Angry or Happy are you right now?</p>","","html-slider-response","4","14841","0.0-4.0","koj84l","Sun Feb 14 2021 16:02:15 GMT+0100 (Centraleuropæisk normaltid)","2021","2","14","16","2","15","br00","21","female","right","63","18","10","5","4","","","50","63","","","","",""
"5699.835000000348","<p>How Tired/Sleepy/Distracted or Fresh/Awake/Alert are you right now?</p>","","html-slider-response","5","20542","0.0-5.0","koj84l","Sun Feb 14 2021 16:02:15 GMT+0100 (Centraleuropæisk normaltid)","2021","2","14","16","2","15","br00","21","female","right","63","18","10","5","4","","","50","18","","","","",""
"5294.580000000678","<p>How Hungry or Satiated are you right now?</p>","","html-slider-response","6","25838","0.0-6.0","koj84l","Sun Feb 14 2021 16:02:15 GMT+0100 (Centraleuropæisk normaltid)","2021","2","14","16","2","15","br00","21","female","right","63","18","10","5","4","","","50","10","","","","",""
"23914.255000000594","","","survey-multi-select","7","49768","0.0-7.0","koj84l","Sun Feb 14 2021 16:02:15 GMT+0100 (Centraleuropæisk normaltid)","2021","2","14","16","2","15","br00","21","female","right","63","18","10","5","4","{""Sleep"":[""5""],""Eat"":[""4""]}","[0,1]","","","","","","",""
"1469.495000000279","<p>In this experiment, a face and a word will appear in the center of the screen.</p><p>If the face is <strong>happy</strong>, press the letter <strong>H</strong> with <strong>right</strong> index finger.</p><p>If the face is <strong>fearful</strong>, press the letter <strong>F</strong> with <strong>left</strong> index finger.</p><p><strong>Ignore the written words</strong>. Respond as fast as possible while being correct. </p><div style='width: 900px;'><div style='float: left;'><img src='img/stimuli_stroop_happy.png'></img><p class='small'><strong>Press the H key for happy faces</strong></p></div><div class='float: right;'><img src='img/stimuli_stroop_fear.png'></img><p class='small'><strong>Press the F key for faces with fear</strong></p></div></div><p>If the screen turns blank, press <strong>SPACE</strong></p><p><strong>Press any key to begin.</strong></p>","32","html-keyboard-response","8","51239","0.0-8.0","koj84l","Sun Feb 14 2021 16:02:15 GMT+0100 (Centraleuropæisk normaltid)","2021","2","14","16","2","15","br00","21","female","right","63","18","10","5","4","","","","","","","","",""
"null","<div style=""font-size:60px;"">+</div>","null","html-keyboard-response","9","55248","0.0-9.0-0.0","koj84l","Sun Feb 14 2021 16:02:15 GMT+0100 (Centraleuropæisk normaltid)","2021","2","14","16","2","15","br00","21","female","right","63","18","10","5","4","","","","","fixation","","","",""
"528.9999999995416","img/image_stim_h.png","72","image-keyboard-response","10","55791","0.0-9.0-1.0","koj84l","Sun Feb 14 2021 16:02:15 GMT+0100 (Centraleuropæisk normaltid)","2021","2","14","16","2","15","br00","21","female","right","63","18","10","5","4","","","","","test","happy","happy","h","true"
"null","<div style=""font-size:60px;"">+</div>","null","html-keyboard-response","11","56547","0.0-9.0-0.1","koj84l","Sun Feb 14 2021 16:02:15 GMT+0100 (Centraleuropæisk normaltid)","2021","2","14","16","2","15","br00","21","female","right","63","18","10","5","4","","","","","fixation","","","",""
"661.9600000003629","img/image_stim_f_stroop.png","70","image-keyboard-response","12","57212","0.0-9.0-1.1","koj84l","Sun Feb 14 2021 16:02:15 GMT+0100 (Centraleuropæisk normaltid)","2021","2","14","16","2","15","br00","21","female","right","63","18","10","5","4","","","","","test","fear","happy","f","true"
"null","<div style=""font-size:60px;"">+</div>","null","html-keyboard-response","13","59221","0.0-9.0-0.2","koj84l","Sun Feb 14 2021 16:02:15 GMT+0100 (Centraleuropæisk normaltid)","2021","2","14","16","2","15","br00","21","female","right","63","18","10","5","4","","","","","fixation","","","",""
"708.0850000002101","img/image_stim_f.png","70","image-keyboard-response","14","59931","0.0-9.0-1.2","koj84l","Sun Feb 14 2021 16:02:15 GMT+0100 (Centraleuropæisk normaltid)","2021","2","14","16","2","15","br00","21","female","right","63","18","10","5","4","","","","","test","fear","fear","f","true"
"null","<div style=""font-size:60px;"">+</div>","null","html-keyboard-response","15","60436","0.0-9.0-0.3","koj84l","Sun Feb 14 2021 16:02:15 GMT+0100 (Centraleuropæisk normaltid)","2021","2","14","16","2","15","br00","21","female","right","63","18","10","5","4","","","","","fixation","","","",""
"584.0450000005148","img/image_stim_h_stroop.png","72","image-keyboard-response","16","61023","0.0-9.0-1.3","koj84l","Sun Feb 14 2021 16:02:15 GMT+0100 (Centraleuropæisk normaltid)","2021","2","14","16","2","15","br00","21","female","right","63","18","10","5","4","","","","","test","happy","fear","h","true"
"null","<div style=""font-size:60px;"">+</div>","null","html-keyboard-response","17","62032","0.0-9.0-0.4","koj84l","Sun Feb 14 2021 16:02:15 GMT+0100 (Centraleuropæisk normaltid)","2021","2","14","16","2","15","br00","21","female","right","63","18","10","5","4","","","","","fixation","","","",""
"511.20499999979074","img/image_stim_h.png","72","image-keyboard-response","18","62546","0.0-9.0-1.4","koj84l","Sun Feb 14 2021 16:02:15 GMT+0100 (Centraleuropæisk normaltid)","2021","2","14","16","2","15","br00","21","female","right","63","18","10","5","4","","","","","test","happy","happy","h","true"
"null","<div style=""font-size:60px;"">+</div>","null","html-keyboard-response","19","63555","0.0-9.0-0.5","koj84l","Sun Feb 14 2021 16:02:15 GMT+0100 (Centraleuropæisk normaltid)","2021","2","14","16","2","15","br00","21","female","right","63","18","10","5","4","","","","","fixation","","","",""
"631.6249999999854","img/image_stim_h_stroop.png","72","image-keyboard-response","20","64189","0.0-9.0-1.5","koj84l","Sun Feb 14 2021 16:02:15 GMT+0100 (Centraleuropæisk normaltid)","2021","2","14","16","2","15","br00","21","female","right","63","18","10","5","4","","","","","test","happy","fear","h","true"
"null","<div style=""font-size:60px;"">+</div>","null","html-keyboard-response","21","64448","0.0-9.0-0.6","koj84l","Sun Feb 14 2021 16:02:15 GMT+0100 (Centraleuropæisk normaltid)","2021","2","14","16","2","15","br00","21","female","right","63","18","10","5","4","","","","","fixation","","","",""
"594.9599999994534","img/image_stim_f_stroop.png","70","image-keyboard-response","22","65046","0.0-9.0-1.6","koj84l","Sun Feb 14 2021 16:02:15 GMT+0100 (Centraleuropæisk normaltid)","2021","2","14","16","2","15","br00","21","female","right","63","18","10","5","4","","","","","test","fear","happy","f","true"
"null","<div style=""font-size:60px;"">+</div>","null","html-keyboard-response","23","65303","0.0-9.0-0.7","koj84l","Sun Feb 14 2021 16:02:15 GMT+0100 (Centraleuropæisk normaltid)","2021","2","14","16","2","15","br00","21","female","right","63","18","10","5","4","","","","","fixation","","","",""
"420.83499999989","img/image_stim_f.png","70","image-keyboard-response","24","65727","0.0-9.0-1.7","koj84l","Sun Feb 14 2021 16:02:15 GMT+0100 (Centraleuropæisk normaltid)","2021","2","14","16","2","15","br00","21","female","right","63","18","10","5","4","","","","","test","fear","fear","f","true"
"null","<div style=""font-size:60px;"">+</div>","null","html-keyboard-response","25","67735","0.0-9.0-0.8","koj84l","Sun Feb 14 2021 16:02:15 GMT+0100 (Centraleuropæisk normaltid)","2021","2","14","16","2","15","br00","21","female","right","63","18","10","5","4","","","","","fixation","","","",""
"488.62999999983003","img/image_stim_f_stroop.png","72","image-keyboard-response","26","68226","0.0-9.0-1.8","koj84l","Sun Feb 14 2021 16:02:15 GMT+0100 (Centraleuropæisk normaltid)","2021","2","14","16","2","15","br00","21","female","right","63","18","10","5","4","","","","","test","fear","happy","f","false"
"null","<div style=""font-size:60px;"">+</div>","null","html-keyboard-response","27","69734","0.0-9.0-0.9","koj84l","Sun Feb 14 2021 16:02:15 GMT+0100 (Centraleuropæisk normaltid)","2021","2","14","16","2","15","br00","21","female","right","63","18","10","5","4","","","","","fixation","","","",""
"822.2450000003009","img/image_stim_h.png","72","image-keyboard-response","28","70559","0.0-9.0-1.9","koj84l","Sun Feb 14 2021 16:02:15 GMT+0100 (Centraleuropæisk normaltid)","2021","2","14","16","2","15","br00","21","female","right","63","18","10","5","4","","","","","test","happy","happy","h","true"
"null","<div style=""font-size:60px;"">+</div>","null","html-keyboard-response","29","71318","0.0-9.0-0.10","koj84l","Sun Feb 14 2021 16:02:15 GMT+0100 (Centraleuropæisk normaltid)","2021","2","14","16","2","15","br00","21","female","right","63","18","10","5","4","","","","","fixation","","","",""
"556.9550000000163","img/image_stim_f.png","70","image-keyboard-response","30","71878","0.0-9.0-1.10","koj84l","Sun Feb 14 2021 16:02:15 GMT+0100 (Centraleuropæisk normaltid)","2021","2","14","16","2","15","br00","21","female","right","63","18","10","5","4","","","","","test","fear","fear","f","true"
"null","<div style=""font-size:60px;"">+</div>","null","html-keyboard-response","31","72889","0.0-9.0-0.11","koj84l","Sun Feb 14 2021 16:02:15 GMT+0100 (Centraleuropæisk normaltid)","2021","2","14","16","2","15","br00","21","female","right","63","18","10","5","4","","","","","fixation","","","",""
"477.62499999953434","img/image_stim_h_stroop.png","72","image-keyboard-response","32","73368","0.0-9.0-1.11","koj84l","Sun Feb 14 2021 16:02:15 GMT+0100 (Centraleuropæisk normaltid)","2021","2","14","16","2","15","br00","21","female","right","63","18","10","5","4","","","","","test","happy","fear","h","true"
"null","<div style=""font-size:60px;"">+</div>","null","html-keyboard-response","33","74628","0.0-9.0-0.12","koj84l","Sun Feb 14 2021 16:02:15 GMT+0100 (Centraleuropæisk normaltid)","2021","2","14","16","2","15","br00","21","female","right","63","18","10","5","4","","","","","fixation","","","",""
"527.334999999759","img/image_stim_h_stroop.png","72","image-keyboard-response","34","75158","0.0-9.0-1.12","koj84l","Sun Feb 14 2021 16:02:15 GMT+0100 (Centraleuropæisk normaltid)","2021","2","14","16","2","15","br00","21","female","right","63","18","10","5","4","","","","","test","happy","fear","h","true"
"null","<div style=""font-size:60px;"">+</div>","null","html-keyboard-response","35","76917","0.0-9.0-0.13","koj84l","Sun Feb 14 2021 16:02:15 GMT+0100 (Centraleuropæisk normaltid)","2021","2","14","16","2","15","br00","21","female","right","63","18","10","5","4","","","","","fixation","","","",""
"523.000000000131","img/image_stim_f.png","70","image-keyboard-response","36","77442","0.0-9.0-1.13","koj84l","Sun Feb 14 2021 16:02:15 GMT+0100 (Centraleuropæisk normaltid)","2021","2","14","16","2","15","br00","21","female","right","63","18","10","5","4","","","","","test","fear","fear","f","true"
"null","<div style=""font-size:60px;"">+</div>","null","html-keyboard-response","37","79450","0.0-9.0-0.14","koj84l","Sun Feb 14 2021 16:02:15 GMT+0100 (Centraleuropæisk normaltid)","2021","2","14","16","2","15","br00","21","female","right","63","18","10","5","4","","","","","fixation","","","",""
"555.5050000002666","img/image_stim_f_stroop.png","70","image-keyboard-response","38","80009","0.0-9.0-1.14","koj84l","Sun Feb 14 2021 16:02:15 GMT+0100 (Centraleuropæisk normaltid)","2021","2","14","16","2","15","br00","21","female","right","63","18","10","5","4","","","","","test","fear","happy","f","true"
"null","<div style=""font-size:60px;"">+</div>","null","html-keyboard-response","39","80515","0.0-9.0-0.15","koj84l","Sun Feb 14 2021 16:02:15 GMT+0100 (Centraleuropæisk normaltid)","2021","2","14","16","2","15","br00","21","female","right","63","18","10","5","4","","","","","fixation","","","",""
"545.3750000005966","img/image_stim_h.png","72","image-keyboard-response","40","81063","0.0-9.0-1.15","koj84l","Sun Feb 14 2021 16:02:15 GMT+0100 (Centraleuropæisk normaltid)","2021","2","14","16","2","15","br00","21","female","right","63","18","10","5","4","","","","","test","happy","happy","h","true"
"null","<div style=""font-size:60px;"">+</div>","null","html-keyboard-response","41","81319","0.0-9.0-0.16","koj84l","Sun Feb 14 2021 16:02:15 GMT+0100 (Centraleuropæisk normaltid)","2021","2","14","16","2","15","br00","21","female","right","63","18","10","5","4","","","","","fixation","","","",""
"717.2549999995681","img/image_stim_f.png","70","image-keyboard-response","42","82039","0.0-9.0-1.16","koj84l","Sun Feb 14 2021 16:02:15 GMT+0100 (Centraleuropæisk normaltid)","2021","2","14","16","2","15","br00","21","female","right","63","18","10","5","4","","","","","test","fear","fear","f","true"
"null","<div style=""font-size:60px;"">+</div>","null","html-keyboard-response","43","83548","0.0-9.0-0.17","koj84l","Sun Feb 14 2021 16:02:15 GMT+0100 (Centraleuropæisk normaltid)","2021","2","14","16","2","15","br00","21","female","right","63","18","10","5","4","","","","","fixation","","","",""
"455.875000000553","img/image_stim_h.png","72","image-keyboard-response","44","84007","0.0-9.0-1.17","koj84l","Sun Feb 14 2021 16:02:15 GMT+0100 (Centraleuropæisk normaltid)","2021","2","14","16","2","15","br00","21","female","right","63","18","10","5","4","","","","","test","happy","happy","h","true"
"null","<div style=""font-size:60px;"">+</div>","null","html-keyboard-response","45","85767","0.0-9.0-0.18","koj84l","Sun Feb 14 2021 16:02:15 GMT+0100 (Centraleuropæisk normaltid)","2021","2","14","16","2","15","br00","21","female","right","63","18","10","5","4","","","","","fixation","","","",""
"503.3350000003411","img/image_stim_h_stroop.png","72","image-keyboard-response","46","86273","0.0-9.0-1.18","koj84l","Sun Feb 14 2021 16:02:15 GMT+0100 (Centraleuropæisk normaltid)","2021","2","14","16","2","15","br00","21","female","right","63","18","10","5","4","","","","","test","happy","fear","h","true"
"null","<div style=""font-size:60px;"">+</div>","null","html-keyboard-response","47","88282","0.0-9.0-0.19","koj84l","Sun Feb 14 2021 16:02:15 GMT+0100 (Centraleuropæisk normaltid)","2021","2","14","16","2","15","br00","21","female","right","63","18","10","5","4","","","","","fixation","","","",""
"638.039999999819","img/image_stim_f_stroop.png","70","image-keyboard-response","48","88923","0.0-9.0-1.19","koj84l","Sun Feb 14 2021 16:02:15 GMT+0100 (Centraleuropæisk normaltid)","2021","2","14","16","2","15","br00","21","female","right","63","18","10","5","4","","","","","test","fear","happy","f","true"
"null","<div style=""font-size:60px;"">+</div>","null","html-keyboard-response","49","89178","0.0-9.0-0.20","koj84l","Sun Feb 14 2021 16:02:15 GMT+0100 (Centraleuropæisk normaltid)","2021","2","14","16","2","15","br00","21","female","right","63","18","10","5","4","","","","","fixation","","","",""
"529.7899999995861","img/image_stim_f_stroop.png","70","image-keyboard-response","50","89710","0.0-9.0-1.20","koj84l","Sun Feb 14 2021 16:02:15 GMT+0100 (Centraleuropæisk normaltid)","2021","2","14","16","2","15","br00","21","female","right","63","18","10","5","4","","","","","test","fear","happy","f","true"
"null","<div style=""font-size:60px;"">+</div>","null","html-keyboard-response","51","90469","0.0-9.0-0.21","koj84l","Sun Feb 14 2021 16:02:15 GMT+0100 (Centraleuropæisk normaltid)","2021","2","14","16","2","15","br00","21","female","right","63","18","10","5","4","","","","","fixation","","","",""
"496.62000000081025","img/image_stim_h.png","72","image-keyboard-response","52","90968","0.0-9.0-1.21","koj84l","Sun Feb 14 2021 16:02:15 GMT+0100 (Centraleuropæisk normaltid)","2021","2","14","16","2","15","br00","21","female","right","63","18","10","5","4","","","","","test","happy","happy","h","true"
"null","<div style=""font-size:60px;"">+</div>","null","html-keyboard-response","53","92978","0.0-9.0-0.22","koj84l","Sun Feb 14 2021 16:02:15 GMT+0100 (Centraleuropæisk normaltid)","2021","2","14","16","2","15","br00","21","female","right","63","18","10","5","4","","","","","fixation","","","",""
"517.7899999998917","img/image_stim_h_stroop.png","72","image-keyboard-response","54","93499","0.0-9.0-1.22","koj84l","Sun Feb 14 2021 16:02:15 GMT+0100 (Centraleuropæisk normaltid)","2021","2","14","16","2","15","br00","21","female","right","63","18","10","5","4","","","","","test","happy","fear","h","true"
"null","<div style=""font-size:60px;"">+</div>","null","html-keyboard-response","55","94759","0.0-9.0-0.23","koj84l","Sun Feb 14 2021 16:02:15 GMT+0100 (Centraleuropæisk normaltid)","2021","2","14","16","2","15","br00","21","female","right","63","18","10","5","4","","","","","fixation","","","",""
"538.6250000001455","img/image_stim_f.png","70","image-keyboard-response","56","95300","0.0-9.0-1.23","koj84l","Sun Feb 14 2021 16:02:15 GMT+0100 (Centraleuropæisk normaltid)","2021","2","14","16","2","15","br00","21","female","right","63","18","10","5","4","","","","","test","fear","fear","f","true"
"null","<div style=""font-size:60px;"">+</div>","null","html-keyboard-response","57","95805","0.0-9.0-0.24","koj84l","Sun Feb 14 2021 16:02:15 GMT+0100 (Centraleuropæisk normaltid)","2021","2","14","16","2","15","br00","21","female","right","63","18","10","5","4","","","","","fixation","","","",""
"518.7500000001746","img/image_stim_h.png","72","image-keyboard-response","58","96327","0.0-9.0-1.24","koj84l","Sun Feb 14 2021 16:02:15 GMT+0100 (Centraleuropæisk normaltid)","2021","2","14","16","2","15","br00","21","female","right","63","18","10","5","4","","","","","test","happy","happy","h","true"
"null","<div style=""font-size:60px;"">+</div>","null","html-keyboard-response","59","97837","0.0-9.0-0.25","koj84l","Sun Feb 14 2021 16:02:15 GMT+0100 (Centraleuropæisk normaltid)","2021","2","14","16","2","15","br00","21","female","right","63","18","10","5","4","","","","","fixation","","","",""
"637.960000000021","img/image_stim_h_stroop.png","72","image-keyboard-response","60","98478","0.0-9.0-1.25","koj84l","Sun Feb 14 2021 16:02:15 GMT+0100 (Centraleuropæisk normaltid)","2021","2","14","16","2","15","br00","21","female","right","63","18","10","5","4","","","","","test","happy","fear","h","true"
"null","<div style=""font-size:60px;"">+</div>","null","html-keyboard-response","61","100489","0.0-9.0-0.26","koj84l","Sun Feb 14 2021 16:02:15 GMT+0100 (Centraleuropæisk normaltid)","2021","2","14","16","2","15","br00","21","female","right","63","18","10","5","4","","","","","fixation","","","",""
"614.1250000000582","img/image_stim_f.png","70","image-keyboard-response","62","101106","0.0-9.0-1.26","koj84l","Sun Feb 14 2021 16:02:15 GMT+0100 (Centraleuropæisk normaltid)","2021","2","14","16","2","15","br00","21","female","right","63","18","10","5","4","","","","","test","fear","fear","f","true"
"null","<div style=""font-size:60px;"">+</div>","null","html-keyboard-response","63","101613","0.0-9.0-0.27","koj84l","Sun Feb 14 2021 16:02:15 GMT+0100 (Centraleuropæisk normaltid)","2021","2","14","16","2","15","br00","21","female","right","63","18","10","5","4","","","","","fixation","","","",""
"381.4199999997072","img/image_stim_f_stroop.png","70","image-keyboard-response","64","101997","0.0-9.0-1.27","koj84l","Sun Feb 14 2021 16:02:15 GMT+0100 (Centraleuropæisk normaltid)","2021","2","14","16","2","15","br00","21","female","right","63","18","10","5","4","","","","","test","fear","happy","f","true"
"null","<div style=""font-size:60px;"">+</div>","null","html-keyboard-response","65","103506","0.0-9.0-0.28","koj84l","Sun Feb 14 2021 16:02:15 GMT+0100 (Centraleuropæisk normaltid)","2021","2","14","16","2","15","br00","21","female","right","63","18","10","5","4","","","","","fixation","","","",""
"649.8350000001665","img/image_stim_f.png","70","image-keyboard-response","66","104158","0.0-9.0-1.28","koj84l","Sun Feb 14 2021 16:02:15 GMT+0100 (Centraleuropæisk normaltid)","2021","2","14","16","2","15","br00","21","female","right","63","18","10","5","4","","","","","test","fear","fear","f","true"
"null","<div style=""font-size:60px;"">+</div>","null","html-keyboard-response","67","105418","0.0-9.0-0.29","koj84l","Sun Feb 14 2021 16:02:15 GMT+0100 (Centraleuropæisk normaltid)","2021","2","14","16","2","15","br00","21","female","right","63","18","10","5","4","","","","","fixation","","","",""
"487.08499999974447","img/image_stim_h_stroop.png","72","image-keyboard-response","68","105909","0.0-9.0-1.29","koj84l","Sun Feb 14 2021 16:02:15 GMT+0100 (Centraleuropæisk normaltid)","2021","2","14","16","2","15","br00","21","female","right","63","18","10","5","4","","","","","test","happy","fear","h","true"
"null","<div style=""font-size:60px;"">+</div>","null","html-keyboard-response","69","106671","0.0-9.0-0.30","koj84l","Sun Feb 14 2021 16:02:15 GMT+0100 (Centraleuropæisk normaltid)","2021","2","14","16","2","15","br00","21","female","right","63","18","10","5","4","","","","","fixation","","","",""
"706.8349999999627","img/image_stim_f_stroop.png","70","image-keyboard-response","70","107380","0.0-9.0-1.30","koj84l","Sun Feb 14 2021 16:02:15 GMT+0100 (Centraleuropæisk normaltid)","2021","2","14","16","2","15","br00","21","female","right","63","18","10","5","4","","","","","test","fear","happy","f","true"
"null","<div style=""font-size:60px;"">+</div>","null","html-keyboard-response","71","107638","0.0-9.0-0.31","koj84l","Sun Feb 14 2021 16:02:15 GMT+0100 (Centraleuropæisk normaltid)","2021","2","14","16","2","15","br00","21","female","right","63","18","10","5","4","","","","","fixation","","","",""
"508.3800000002084","img/image_stim_h.png","72","image-keyboard-response","72","108149","0.0-9.0-1.31","koj84l","Sun Feb 14 2021 16:02:15 GMT+0100 (Centraleuropæisk normaltid)","2021","2","14","16","2","15","br00","21","female","right","63","18","10","5","4","","","","","test","happy","happy","h","true"
"null","<div style=""font-size:60px;"">+</div>","null","html-keyboard-response","73","109656","0.0-9.0-0.32","koj84l","Sun Feb 14 2021 16:02:15 GMT+0100 (Centraleuropæisk normaltid)","2021","2","14","16","2","15","br00","21","female","right","63","18","10","5","4","","","","","fixation","","","",""
"523.750000000291","img/image_stim_f.png","70","image-keyboard-response","74","110183","0.0-9.0-1.32","koj84l","Sun Feb 14 2021 16:02:15 GMT+0100 (Centraleuropæisk normaltid)","2021","2","14","16","2","15","br00","21","female","right","63","18","10","5","4","","","","","test","fear","fear","f","true"
"null","<div style=""font-size:60px;"">+</div>","null","html-keyboard-response","75","111189","0.0-9.0-0.33","koj84l","Sun Feb 14 2021 16:02:15 GMT+0100 (Centraleuropæisk normaltid)","2021","2","14","16","2","15","br00","21","female","right","63","18","10","5","4","","","","","fixation","","","",""
"470.9999999995489","img/image_stim_h_stroop.png","72","image-keyboard-response","76","111663","0.0-9.0-1.33","koj84l","Sun Feb 14 2021 16:02:15 GMT+0100 (Centraleuropæisk normaltid)","2021","2","14","16","2","15","br00","21","female","right","63","18","10","5","4","","","","","test","happy","fear","h","true"
"null","<div style=""font-size:60px;"">+</div>","null","html-keyboard-response","77","112922","0.0-9.0-0.34","koj84l","Sun Feb 14 2021 16:02:15 GMT+0100 (Centraleuropæisk normaltid)","2021","2","14","16","2","15","br00","21","female","right","63","18","10","5","4","","","","","fixation","","","",""
"499.87500000043656","img/image_stim_f_stroop.png","72","image-keyboard-response","78","113424","0.0-9.0-1.34","koj84l","Sun Feb 14 2021 16:02:15 GMT+0100 (Centraleuropæisk normaltid)","2021","2","14","16","2","15","br00","21","female","right","63","18","10","5","4","","","","","test","fear","happy","f","false"
"null","<div style=""font-size:60px;"">+</div>","null","html-keyboard-response","79","114935","0.0-9.0-0.35","koj84l","Sun Feb 14 2021 16:02:15 GMT+0100 (Centraleuropæisk normaltid)","2021","2","14","16","2","15","br00","21","female","right","63","18","10","5","4","","","","","fixation","","","",""
"689.414999999819","img/image_stim_h.png","72","image-keyboard-response","80","115627","0.0-9.0-1.35","koj84l","Sun Feb 14 2021 16:02:15 GMT+0100 (Centraleuropæisk normaltid)","2021","2","14","16","2","15","br00","21","female","right","63","18","10","5","4","","","","","test","happy","happy","h","true"
