"rt","stimulus","key_press","trial_type","trial_index","time_elapsed","internal_node_id","exp_id","Time","year","month","date","hour","minute","seconds","id","age","Gender","Handedness","mood","fresh","hunger","H_since_Sleep","H_since_Eat","responses","question_order","slider_start","response","test_part","face","word","correct_response","correct"
"16053.079999997863","<p>Welcome to this experiment on daily rhythms and cognition.</p><p>First you will be asked some questions about yourself.</p><p>Then a short experiment will measure your response time.</p><p>Take the test at different times of the day/night.</p><p>The test is anonymous, but comparing your data across time is important.</p><p>Therefore, please make up and remember a personal ID (two letters+ two numbers).</p><p>Use this ID whenever taking the test.</p><p><strong>Press any key to begin.</strong></p>","32","html-keyboard-response","0","16055","0.0-0.0","p3cd7x","Tue Feb 16 2021 11:45:02 GMT+0100 (Central European Standard Time)","2021","2","16","11","45","2","sw22","22","female","right","37","39","100","4","0","","","","","","","","",""
"12453.294999999343","","","survey-text","1","28515","0.0-1.0","p3cd7x","Tue Feb 16 2021 11:45:02 GMT+0100 (Central European Standard Time)","2021","2","16","11","45","2","sw22","22","female","right","37","39","100","4","0","{""Q0"":""sw22""}","","","","","","","",""
"3457.2899999911897","","","survey-text","2","31974","0.0-2.0","p3cd7x","Tue Feb 16 2021 11:45:02 GMT+0100 (Central European Standard Time)","2021","2","16","11","45","2","sw22","22","female","right","37","39","100","4","0","{""Q0"":""22""}","","","","","","","",""
"3544.754999995348","","","survey-multi-select","3","35521","0.0-3.0","p3cd7x","Tue Feb 16 2021 11:45:02 GMT+0100 (Central European Standard Time)","2021","2","16","11","45","2","sw22","22","female","right","37","39","100","4","0","{""Gender"":[""female""],""Hand"":[""right""]}","[0,1]","","","","","","",""
"5240.409999998519","<p>How Sad/Angry or Happy are you right now?</p>","","html-slider-response","4","40767","0.0-4.0","p3cd7x","Tue Feb 16 2021 11:45:02 GMT+0100 (Central European Standard Time)","2021","2","16","11","45","2","sw22","22","female","right","37","39","100","4","0","","","50","37","","","","",""
"6262.49999999709","<p>How Tired/Sleepy/Distracted or Fresh/Awake/Alert are you right now?</p>","","html-slider-response","5","47031","0.0-5.0","p3cd7x","Tue Feb 16 2021 11:45:02 GMT+0100 (Central European Standard Time)","2021","2","16","11","45","2","sw22","22","female","right","37","39","100","4","0","","","50","39","","","","",""
"2720.999999990454","<p>How Hungry or Satiated are you right now?</p>","","html-slider-response","6","49754","0.0-6.0","p3cd7x","Tue Feb 16 2021 11:45:02 GMT+0100 (Central European Standard Time)","2021","2","16","11","45","2","sw22","22","female","right","37","39","100","4","0","","","50","100","","","","",""
"20258.205000005546","","","survey-multi-select","7","70030","0.0-7.0","p3cd7x","Tue Feb 16 2021 11:45:02 GMT+0100 (Central European Standard Time)","2021","2","16","11","45","2","sw22","22","female","right","37","39","100","4","0","{""Sleep"":[""4""],""Eat"":[""0""]}","[0,1]","","","","","","",""
"24500.545000002603","<p>In this experiment, a face and a word will appear in the center of the screen.</p><p>If the face is <strong>happy</strong>, press the letter <strong>H</strong> with <strong>right</strong> index finger.</p><p>If the face is <strong>fearful</strong>, press the letter <strong>F</strong> with <strong>left</strong> index finger.</p><p><strong>Ignore the written words</strong>. Respond as fast as possible while being correct. </p><div style='width: 900px;'><div style='float: left;'><img src='img/stimuli_stroop_happy.png'></img><p class='small'><strong>Press the H key for happy faces</strong></p></div><div class='float: right;'><img src='img/stimuli_stroop_fear.png'></img><p class='small'><strong>Press the F key for faces with fear</strong></p></div></div><p>If the screen turns blank, press <strong>SPACE</strong></p><p><strong>Press any key to begin.</strong></p>","32","html-keyboard-response","8","94535","0.0-8.0","p3cd7x","Tue Feb 16 2021 11:45:02 GMT+0100 (Central European Standard Time)","2021","2","16","11","45","2","sw22","22","female","right","37","39","100","4","0","","","","","","","","",""
"null","<div style=""font-size:60px;"">+</div>","null","html-keyboard-response","9","98042","0.0-9.0-0.0","p3cd7x","Tue Feb 16 2021 11:45:02 GMT+0100 (Central European Standard Time)","2021","2","16","11","45","2","sw22","22","female","right","37","39","100","4","0","","","","","fixation","","","",""
"1575.540000005276","img/image_stim_h_stroop.png","72","image-keyboard-response","10","99629","0.0-9.0-1.0","p3cd7x","Tue Feb 16 2021 11:45:02 GMT+0100 (Central European Standard Time)","2021","2","16","11","45","2","sw22","22","female","right","37","39","100","4","0","","","","","test","happy","fear","h","true"
"null","<div style=""font-size:60px;"">+</div>","null","html-keyboard-response","11","100134","0.0-9.0-0.1","p3cd7x","Tue Feb 16 2021 11:45:02 GMT+0100 (Central European Standard Time)","2021","2","16","11","45","2","sw22","22","female","right","37","39","100","4","0","","","","","fixation","","","",""
"497.88000000989996","img/image_stim_h.png","72","image-keyboard-response","12","100634","0.0-9.0-1.1","p3cd7x","Tue Feb 16 2021 11:45:02 GMT+0100 (Central European Standard Time)","2021","2","16","11","45","2","sw22","22","female","right","37","39","100","4","0","","","","","test","happy","happy","h","true"
"null","<div style=""font-size:60px;"">+</div>","null","html-keyboard-response","13","102143","0.0-9.0-0.2","p3cd7x","Tue Feb 16 2021 11:45:02 GMT+0100 (Central European Standard Time)","2021","2","16","11","45","2","sw22","22","female","right","37","39","100","4","0","","","","","fixation","","","",""
"570.2100000053179","img/image_stim_f.png","70","image-keyboard-response","14","102716","0.0-9.0-1.2","p3cd7x","Tue Feb 16 2021 11:45:02 GMT+0100 (Central European Standard Time)","2021","2","16","11","45","2","sw22","22","female","right","37","39","100","4","0","","","","","test","fear","fear","f","true"
"null","<div style=""font-size:60px;"">+</div>","null","html-keyboard-response","15","103220","0.0-9.0-0.3","p3cd7x","Tue Feb 16 2021 11:45:02 GMT+0100 (Central European Standard Time)","2021","2","16","11","45","2","sw22","22","female","right","37","39","100","4","0","","","","","fixation","","","",""
"411.12499999871943","img/image_stim_f_stroop.png","70","image-keyboard-response","16","103634","0.0-9.0-1.3","p3cd7x","Tue Feb 16 2021 11:45:02 GMT+0100 (Central European Standard Time)","2021","2","16","11","45","2","sw22","22","female","right","37","39","100","4","0","","","","","test","fear","happy","f","true"
"null","<div style=""font-size:60px;"">+</div>","null","html-keyboard-response","17","105390","0.0-9.0-0.4","p3cd7x","Tue Feb 16 2021 11:45:02 GMT+0100 (Central European Standard Time)","2021","2","16","11","45","2","sw22","22","female","right","37","39","100","4","0","","","","","fixation","","","",""
"451.70499999949243","img/image_stim_h_stroop.png","72","image-keyboard-response","18","105844","0.0-9.0-1.4","p3cd7x","Tue Feb 16 2021 11:45:02 GMT+0100 (Central European Standard Time)","2021","2","16","11","45","2","sw22","22","female","right","37","39","100","4","0","","","","","test","happy","fear","h","true"
"null","<div style=""font-size:60px;"">+</div>","null","html-keyboard-response","19","107850","0.0-9.0-0.5","p3cd7x","Tue Feb 16 2021 11:45:02 GMT+0100 (Central European Standard Time)","2021","2","16","11","45","2","sw22","22","female","right","37","39","100","4","0","","","","","fixation","","","",""
"479.5450000092387","img/image_stim_h.png","72","image-keyboard-response","20","108333","0.0-9.0-1.5","p3cd7x","Tue Feb 16 2021 11:45:02 GMT+0100 (Central European Standard Time)","2021","2","16","11","45","2","sw22","22","female","right","37","39","100","4","0","","","","","test","happy","happy","h","true"
"null","<div style=""font-size:60px;"">+</div>","null","html-keyboard-response","21","109339","0.0-9.0-0.6","p3cd7x","Tue Feb 16 2021 11:45:02 GMT+0100 (Central European Standard Time)","2021","2","16","11","45","2","sw22","22","female","right","37","39","100","4","0","","","","","fixation","","","",""
"684.369999988121","img/image_stim_f_stroop.png","70","image-keyboard-response","22","110026","0.0-9.0-1.6","p3cd7x","Tue Feb 16 2021 11:45:02 GMT+0100 (Central European Standard Time)","2021","2","16","11","45","2","sw22","22","female","right","37","39","100","4","0","","","","","test","fear","happy","f","true"
"null","<div style=""font-size:60px;"">+</div>","null","html-keyboard-response","23","111783","0.0-9.0-0.7","p3cd7x","Tue Feb 16 2021 11:45:02 GMT+0100 (Central European Standard Time)","2021","2","16","11","45","2","sw22","22","female","right","37","39","100","4","0","","","","","fixation","","","",""
"504.54000000900123","img/image_stim_f.png","70","image-keyboard-response","24","112290","0.0-9.0-1.7","p3cd7x","Tue Feb 16 2021 11:45:02 GMT+0100 (Central European Standard Time)","2021","2","16","11","45","2","sw22","22","female","right","37","39","100","4","0","","","","","test","fear","fear","f","true"
"null","<div style=""font-size:60px;"">+</div>","null","html-keyboard-response","25","113796","0.0-9.0-0.8","p3cd7x","Tue Feb 16 2021 11:45:02 GMT+0100 (Central European Standard Time)","2021","2","16","11","45","2","sw22","22","female","right","37","39","100","4","0","","","","","fixation","","","",""
"350.4549999925075","img/image_stim_f_stroop.png","70","image-keyboard-response","26","114150","0.0-9.0-1.8","p3cd7x","Tue Feb 16 2021 11:45:02 GMT+0100 (Central European Standard Time)","2021","2","16","11","45","2","sw22","22","female","right","37","39","100","4","0","","","","","test","fear","happy","f","true"
"null","<div style=""font-size:60px;"">+</div>","null","html-keyboard-response","27","115657","0.0-9.0-0.9","p3cd7x","Tue Feb 16 2021 11:45:02 GMT+0100 (Central European Standard Time)","2021","2","16","11","45","2","sw22","22","female","right","37","39","100","4","0","","","","","fixation","","","",""
"442.71000000298955","img/image_stim_h.png","72","image-keyboard-response","28","116102","0.0-9.0-1.9","p3cd7x","Tue Feb 16 2021 11:45:02 GMT+0100 (Central European Standard Time)","2021","2","16","11","45","2","sw22","22","female","right","37","39","100","4","0","","","","","test","happy","happy","h","true"
"null","<div style=""font-size:60px;"">+</div>","null","html-keyboard-response","29","116859","0.0-9.0-0.10","p3cd7x","Tue Feb 16 2021 11:45:02 GMT+0100 (Central European Standard Time)","2021","2","16","11","45","2","sw22","22","female","right","37","39","100","4","0","","","","","fixation","","","",""
"373.5000000015134","img/image_stim_f.png","70","image-keyboard-response","30","117235","0.0-9.0-1.10","p3cd7x","Tue Feb 16 2021 11:45:02 GMT+0100 (Central European Standard Time)","2021","2","16","11","45","2","sw22","22","female","right","37","39","100","4","0","","","","","test","fear","fear","f","true"
"null","<div style=""font-size:60px;"">+</div>","null","html-keyboard-response","31","118738","0.0-9.0-0.11","p3cd7x","Tue Feb 16 2021 11:45:02 GMT+0100 (Central European Standard Time)","2021","2","16","11","45","2","sw22","22","female","right","37","39","100","4","0","","","","","fixation","","","",""
"374.11999999312684","img/image_stim_h_stroop.png","72","image-keyboard-response","32","119115","0.0-9.0-1.11","p3cd7x","Tue Feb 16 2021 11:45:02 GMT+0100 (Central European Standard Time)","2021","2","16","11","45","2","sw22","22","female","right","37","39","100","4","0","","","","","test","happy","fear","h","true"
"null","<div style=""font-size:60px;"">+</div>","null","html-keyboard-response","33","119870","0.0-9.0-0.12","p3cd7x","Tue Feb 16 2021 11:45:02 GMT+0100 (Central European Standard Time)","2021","2","16","11","45","2","sw22","22","female","right","37","39","100","4","0","","","","","fixation","","","",""
"364.7049999999581","img/image_stim_f_stroop.png","70","image-keyboard-response","34","120238","0.0-9.0-1.12","p3cd7x","Tue Feb 16 2021 11:45:02 GMT+0100 (Central European Standard Time)","2021","2","16","11","45","2","sw22","22","female","right","37","39","100","4","0","","","","","test","fear","happy","f","true"
"null","<div style=""font-size:60px;"">+</div>","null","html-keyboard-response","35","120996","0.0-9.0-0.13","p3cd7x","Tue Feb 16 2021 11:45:02 GMT+0100 (Central European Standard Time)","2021","2","16","11","45","2","sw22","22","female","right","37","39","100","4","0","","","","","fixation","","","",""
"360.83000000508036","img/image_stim_f.png","70","image-keyboard-response","36","121360","0.0-9.0-1.13","p3cd7x","Tue Feb 16 2021 11:45:02 GMT+0100 (Central European Standard Time)","2021","2","16","11","45","2","sw22","22","female","right","37","39","100","4","0","","","","","test","fear","fear","f","true"
"null","<div style=""font-size:60px;"">+</div>","null","html-keyboard-response","37","121620","0.0-9.0-0.14","p3cd7x","Tue Feb 16 2021 11:45:02 GMT+0100 (Central European Standard Time)","2021","2","16","11","45","2","sw22","22","female","right","37","39","100","4","0","","","","","fixation","","","",""
"513.4149999939837","img/image_stim_h_stroop.png","72","image-keyboard-response","38","122137","0.0-9.0-1.14","p3cd7x","Tue Feb 16 2021 11:45:02 GMT+0100 (Central European Standard Time)","2021","2","16","11","45","2","sw22","22","female","right","37","39","100","4","0","","","","","test","happy","fear","h","true"
"null","<div style=""font-size:60px;"">+</div>","null","html-keyboard-response","39","123142","0.0-9.0-0.15","p3cd7x","Tue Feb 16 2021 11:45:02 GMT+0100 (Central European Standard Time)","2021","2","16","11","45","2","sw22","22","female","right","37","39","100","4","0","","","","","fixation","","","",""
"407.2499999892898","img/image_stim_h.png","72","image-keyboard-response","40","123552","0.0-9.0-1.15","p3cd7x","Tue Feb 16 2021 11:45:02 GMT+0100 (Central European Standard Time)","2021","2","16","11","45","2","sw22","22","female","right","37","39","100","4","0","","","","","test","happy","happy","h","true"
"null","<div style=""font-size:60px;"">+</div>","null","html-keyboard-response","41","125311","0.0-9.0-0.16","p3cd7x","Tue Feb 16 2021 11:45:02 GMT+0100 (Central European Standard Time)","2021","2","16","11","45","2","sw22","22","female","right","37","39","100","4","0","","","","","fixation","","","",""
"391.7500000097789","img/image_stim_h_stroop.png","72","image-keyboard-response","42","125706","0.0-9.0-1.16","p3cd7x","Tue Feb 16 2021 11:45:02 GMT+0100 (Central European Standard Time)","2021","2","16","11","45","2","sw22","22","female","right","37","39","100","4","0","","","","","test","happy","fear","h","true"
"null","<div style=""font-size:60px;"">+</div>","null","html-keyboard-response","43","125962","0.0-9.0-0.17","p3cd7x","Tue Feb 16 2021 11:45:02 GMT+0100 (Central European Standard Time)","2021","2","16","11","45","2","sw22","22","female","right","37","39","100","4","0","","","","","fixation","","","",""
"490.2950000105193","img/image_stim_f_stroop.png","70","image-keyboard-response","44","126455","0.0-9.0-1.17","p3cd7x","Tue Feb 16 2021 11:45:02 GMT+0100 (Central European Standard Time)","2021","2","16","11","45","2","sw22","22","female","right","37","39","100","4","0","","","","","test","fear","happy","f","true"
"null","<div style=""font-size:60px;"">+</div>","null","html-keyboard-response","45","128464","0.0-9.0-0.18","p3cd7x","Tue Feb 16 2021 11:45:02 GMT+0100 (Central European Standard Time)","2021","2","16","11","45","2","sw22","22","female","right","37","39","100","4","0","","","","","fixation","","","",""
"549.3800000112969","img/image_stim_f.png","70","image-keyboard-response","46","129016","0.0-9.0-1.18","p3cd7x","Tue Feb 16 2021 11:45:02 GMT+0100 (Central European Standard Time)","2021","2","16","11","45","2","sw22","22","female","right","37","39","100","4","0","","","","","test","fear","fear","f","true"
"null","<div style=""font-size:60px;"">+</div>","null","html-keyboard-response","47","130275","0.0-9.0-0.19","p3cd7x","Tue Feb 16 2021 11:45:02 GMT+0100 (Central European Standard Time)","2021","2","16","11","45","2","sw22","22","female","right","37","39","100","4","0","","","","","fixation","","","",""
"320.61999999859836","img/image_stim_h.png","70","image-keyboard-response","48","130597","0.0-9.0-1.19","p3cd7x","Tue Feb 16 2021 11:45:02 GMT+0100 (Central European Standard Time)","2021","2","16","11","45","2","sw22","22","female","right","37","39","100","4","0","","","","","test","happy","happy","h","false"
"null","<div style=""font-size:60px;"">+</div>","null","html-keyboard-response","49","132105","0.0-9.0-0.20","p3cd7x","Tue Feb 16 2021 11:45:02 GMT+0100 (Central European Standard Time)","2021","2","16","11","45","2","sw22","22","female","right","37","39","100","4","0","","","","","fixation","","","",""
"516.8350000021746","img/image_stim_h_stroop.png","72","image-keyboard-response","50","132625","0.0-9.0-1.20","p3cd7x","Tue Feb 16 2021 11:45:02 GMT+0100 (Central European Standard Time)","2021","2","16","11","45","2","sw22","22","female","right","37","39","100","4","0","","","","","test","happy","fear","h","true"
"null","<div style=""font-size:60px;"">+</div>","null","html-keyboard-response","51","132884","0.0-9.0-0.21","p3cd7x","Tue Feb 16 2021 11:45:02 GMT+0100 (Central European Standard Time)","2021","2","16","11","45","2","sw22","22","female","right","37","39","100","4","0","","","","","fixation","","","",""
"755.5450000072597","img/image_stim_f_stroop.png","70","image-keyboard-response","52","133643","0.0-9.0-1.21","p3cd7x","Tue Feb 16 2021 11:45:02 GMT+0100 (Central European Standard Time)","2021","2","16","11","45","2","sw22","22","female","right","37","39","100","4","0","","","","","test","fear","happy","f","true"
"null","<div style=""font-size:60px;"">+</div>","null","html-keyboard-response","53","135400","0.0-9.0-0.22","p3cd7x","Tue Feb 16 2021 11:45:02 GMT+0100 (Central European Standard Time)","2021","2","16","11","45","2","sw22","22","female","right","37","39","100","4","0","","","","","fixation","","","",""
"504.70999999379274","img/image_stim_h.png","72","image-keyboard-response","54","135908","0.0-9.0-1.22","p3cd7x","Tue Feb 16 2021 11:45:02 GMT+0100 (Central European Standard Time)","2021","2","16","11","45","2","sw22","22","female","right","37","39","100","4","0","","","","","test","happy","happy","h","true"
"null","<div style=""font-size:60px;"">+</div>","null","html-keyboard-response","55","136165","0.0-9.0-0.23","p3cd7x","Tue Feb 16 2021 11:45:02 GMT+0100 (Central European Standard Time)","2021","2","16","11","45","2","sw22","22","female","right","37","39","100","4","0","","","","","fixation","","","",""
"544.5400000025984","img/image_stim_f.png","70","image-keyboard-response","56","136712","0.0-9.0-1.23","p3cd7x","Tue Feb 16 2021 11:45:02 GMT+0100 (Central European Standard Time)","2021","2","16","11","45","2","sw22","22","female","right","37","39","100","4","0","","","","","test","fear","fear","f","true"
"null","<div style=""font-size:60px;"">+</div>","null","html-keyboard-response","57","138721","0.0-9.0-0.24","p3cd7x","Tue Feb 16 2021 11:45:02 GMT+0100 (Central European Standard Time)","2021","2","16","11","45","2","sw22","22","female","right","37","39","100","4","0","","","","","fixation","","","",""
"851.1249999864958","img/image_stim_f_stroop.png","70","image-keyboard-response","58","139576","0.0-9.0-1.24","p3cd7x","Tue Feb 16 2021 11:45:02 GMT+0100 (Central European Standard Time)","2021","2","16","11","45","2","sw22","22","female","right","37","39","100","4","0","","","","","test","fear","happy","f","true"
"null","<div style=""font-size:60px;"">+</div>","null","html-keyboard-response","59","140336","0.0-9.0-0.25","p3cd7x","Tue Feb 16 2021 11:45:02 GMT+0100 (Central European Standard Time)","2021","2","16","11","45","2","sw22","22","female","right","37","39","100","4","0","","","","","fixation","","","",""
"466.74499999789987","img/image_stim_h_stroop.png","72","image-keyboard-response","60","140805","0.0-9.0-1.25","p3cd7x","Tue Feb 16 2021 11:45:02 GMT+0100 (Central European Standard Time)","2021","2","16","11","45","2","sw22","22","female","right","37","39","100","4","0","","","","","test","happy","fear","h","true"
"null","<div style=""font-size:60px;"">+</div>","null","html-keyboard-response","61","141063","0.0-9.0-0.26","p3cd7x","Tue Feb 16 2021 11:45:02 GMT+0100 (Central European Standard Time)","2021","2","16","11","45","2","sw22","22","female","right","37","39","100","4","0","","","","","fixation","","","",""
"479.4149999943329","img/image_stim_h.png","72","image-keyboard-response","62","141546","0.0-9.0-1.26","p3cd7x","Tue Feb 16 2021 11:45:02 GMT+0100 (Central European Standard Time)","2021","2","16","11","45","2","sw22","22","female","right","37","39","100","4","0","","","","","test","happy","happy","h","true"
"null","<div style=""font-size:60px;"">+</div>","null","html-keyboard-response","63","143052","0.0-9.0-0.27","p3cd7x","Tue Feb 16 2021 11:45:02 GMT+0100 (Central European Standard Time)","2021","2","16","11","45","2","sw22","22","female","right","37","39","100","4","0","","","","","fixation","","","",""
"424.9149999959627","img/image_stim_f.png","70","image-keyboard-response","64","143479","0.0-9.0-1.27","p3cd7x","Tue Feb 16 2021 11:45:02 GMT+0100 (Central European Standard Time)","2021","2","16","11","45","2","sw22","22","female","right","37","39","100","4","0","","","","","test","fear","fear","f","true"
"null","<div style=""font-size:60px;"">+</div>","null","html-keyboard-response","65","145489","0.0-9.0-0.28","p3cd7x","Tue Feb 16 2021 11:45:02 GMT+0100 (Central European Standard Time)","2021","2","16","11","45","2","sw22","22","female","right","37","39","100","4","0","","","","","fixation","","","",""
"311.50500000512693","img/image_stim_h.png","70","image-keyboard-response","66","145803","0.0-9.0-1.28","p3cd7x","Tue Feb 16 2021 11:45:02 GMT+0100 (Central European Standard Time)","2021","2","16","11","45","2","sw22","22","female","right","37","39","100","4","0","","","","","test","happy","happy","h","false"
"null","<div style=""font-size:60px;"">+</div>","null","html-keyboard-response","67","146561","0.0-9.0-0.29","p3cd7x","Tue Feb 16 2021 11:45:02 GMT+0100 (Central European Standard Time)","2021","2","16","11","45","2","sw22","22","female","right","37","39","100","4","0","","","","","fixation","","","",""
"468.6249999940628","img/image_stim_h_stroop.png","72","image-keyboard-response","68","147034","0.0-9.0-1.29","p3cd7x","Tue Feb 16 2021 11:45:02 GMT+0100 (Central European Standard Time)","2021","2","16","11","45","2","sw22","22","female","right","37","39","100","4","0","","","","","test","happy","fear","h","true"
"null","<div style=""font-size:60px;"">+</div>","null","html-keyboard-response","69","149042","0.0-9.0-0.30","p3cd7x","Tue Feb 16 2021 11:45:02 GMT+0100 (Central European Standard Time)","2021","2","16","11","45","2","sw22","22","female","right","37","39","100","4","0","","","","","fixation","","","",""
"578.2500000059372","img/image_stim_f.png","70","image-keyboard-response","70","149624","0.0-9.0-1.30","p3cd7x","Tue Feb 16 2021 11:45:02 GMT+0100 (Central European Standard Time)","2021","2","16","11","45","2","sw22","22","female","right","37","39","100","4","0","","","","","test","fear","fear","f","true"
"null","<div style=""font-size:60px;"">+</div>","null","html-keyboard-response","71","151384","0.0-9.0-0.31","p3cd7x","Tue Feb 16 2021 11:45:02 GMT+0100 (Central European Standard Time)","2021","2","16","11","45","2","sw22","22","female","right","37","39","100","4","0","","","","","fixation","","","",""
"409.124999991036","img/image_stim_f_stroop.png","70","image-keyboard-response","72","151796","0.0-9.0-1.31","p3cd7x","Tue Feb 16 2021 11:45:02 GMT+0100 (Central European Standard Time)","2021","2","16","11","45","2","sw22","22","female","right","37","39","100","4","0","","","","","test","fear","happy","f","true"
"null","<div style=""font-size:60px;"">+</div>","null","html-keyboard-response","73","153056","0.0-9.0-0.32","p3cd7x","Tue Feb 16 2021 11:45:02 GMT+0100 (Central European Standard Time)","2021","2","16","11","45","2","sw22","22","female","right","37","39","100","4","0","","","","","fixation","","","",""
"471.20499999437016","img/image_stim_h_stroop.png","72","image-keyboard-response","74","153530","0.0-9.0-1.32","p3cd7x","Tue Feb 16 2021 11:45:02 GMT+0100 (Central European Standard Time)","2021","2","16","11","45","2","sw22","22","female","right","37","39","100","4","0","","","","","test","happy","fear","h","true"
"null","<div style=""font-size:60px;"">+</div>","null","html-keyboard-response","75","154290","0.0-9.0-0.33","p3cd7x","Tue Feb 16 2021 11:45:02 GMT+0100 (Central European Standard Time)","2021","2","16","11","45","2","sw22","22","female","right","37","39","100","4","0","","","","","fixation","","","",""
"593.9149999903748","img/image_stim_f.png","70","image-keyboard-response","76","154886","0.0-9.0-1.33","p3cd7x","Tue Feb 16 2021 11:45:02 GMT+0100 (Central European Standard Time)","2021","2","16","11","45","2","sw22","22","female","right","37","39","100","4","0","","","","","test","fear","fear","f","true"
"null","<div style=""font-size:60px;"">+</div>","null","html-keyboard-response","77","156646","0.0-9.0-0.34","p3cd7x","Tue Feb 16 2021 11:45:02 GMT+0100 (Central European Standard Time)","2021","2","16","11","45","2","sw22","22","female","right","37","39","100","4","0","","","","","fixation","","","",""
"528.9999999949941","img/image_stim_f_stroop.png","70","image-keyboard-response","78","157178","0.0-9.0-1.34","p3cd7x","Tue Feb 16 2021 11:45:02 GMT+0100 (Central European Standard Time)","2021","2","16","11","45","2","sw22","22","female","right","37","39","100","4","0","","","","","test","fear","happy","f","true"
"null","<div style=""font-size:60px;"">+</div>","null","html-keyboard-response","79","157935","0.0-9.0-0.35","p3cd7x","Tue Feb 16 2021 11:45:02 GMT+0100 (Central European Standard Time)","2021","2","16","11","45","2","sw22","22","female","right","37","39","100","4","0","","","","","fixation","","","",""
"565.4999999969732","img/image_stim_h.png","72","image-keyboard-response","80","158502","0.0-9.0-1.35","p3cd7x","Tue Feb 16 2021 11:45:02 GMT+0100 (Central European Standard Time)","2021","2","16","11","45","2","sw22","22","female","right","37","39","100","4","0","","","","","test","happy","happy","h","true"
