"rt","stimulus","key_press","trial_type","trial_index","time_elapsed","internal_node_id","exp_id","Time","year","month","date","hour","minute","seconds","id","age","Gender","Handedness","mood","fresh","hunger","H_since_Sleep","H_since_Eat","responses","question_order","slider_start","response","test_part","face","word","correct_response","correct"
"1267.8299999970477","<p>Welcome to this experiment on daily rhythms and cognition.</p><p>First you will be asked some questions about yourself.</p><p>Then a short experiment will measure your response time.</p><p>Take the test at different times of the day/night.</p><p>The test is anonymous, but comparing your data across time is important.</p><p>Therefore, please make up and remember a personal ID (two letters+ two numbers).</p><p>Use this ID whenever taking the test.</p><p><strong>Press any key to begin.</strong></p>","32","html-keyboard-response","0","1268","0.0-0.0","wfcbgc","Tue Feb 09 2021 11:11:14 GMT+0100 (Centraleuropæisk normaltid)","2021","2","9","11","11","14","br00","21","female","right","85","71","5","2","16","","","","","","","","",""
"2770.829999994021","","","survey-text","1","4043","0.0-1.0","wfcbgc","Tue Feb 09 2021 11:11:14 GMT+0100 (Centraleuropæisk normaltid)","2021","2","9","11","11","14","br00","21","female","right","85","71","5","2","16","{""Q0"":""br00""}","","","","","","","",""
"1290.6650000077207","","","survey-text","2","5337","0.0-2.0","wfcbgc","Tue Feb 09 2021 11:11:14 GMT+0100 (Centraleuropæisk normaltid)","2021","2","9","11","11","14","br00","21","female","right","85","71","5","2","16","{""Q0"":""21""}","","","","","","","",""
"3210.915000003297","","","survey-multi-select","3","8551","0.0-3.0","wfcbgc","Tue Feb 09 2021 11:11:14 GMT+0100 (Centraleuropæisk normaltid)","2021","2","9","11","11","14","br00","21","female","right","85","71","5","2","16","{""Gender"":[""female""],""Hand"":[""right""]}","[0,1]","","","","","","",""
"2802.129999996396","<p>How Sad/Angry or Happy are you right now?</p>","","html-slider-response","4","11355","0.0-4.0","wfcbgc","Tue Feb 09 2021 11:11:14 GMT+0100 (Centraleuropæisk normaltid)","2021","2","9","11","11","14","br00","21","female","right","85","71","5","2","16","","","50","85","","","","",""
"2306.7450000089593","<p>How Tired/Sleepy/Distracted or Fresh/Awake/Alert are you right now?</p>","","html-slider-response","5","13663","0.0-5.0","wfcbgc","Tue Feb 09 2021 11:11:14 GMT+0100 (Centraleuropæisk normaltid)","2021","2","9","11","11","14","br00","21","female","right","85","71","5","2","16","","","50","71","","","","",""
"2444.7499999951106","<p>How Hungry or Satiated are you right now?</p>","","html-slider-response","6","16110","0.0-6.0","wfcbgc","Tue Feb 09 2021 11:11:14 GMT+0100 (Centraleuropæisk normaltid)","2021","2","9","11","11","14","br00","21","female","right","85","71","5","2","16","","","50","5","","","","",""
"6771.4149999956135","","","survey-multi-select","7","22898","0.0-7.0","wfcbgc","Tue Feb 09 2021 11:11:14 GMT+0100 (Centraleuropæisk normaltid)","2021","2","9","11","11","14","br00","21","female","right","85","71","5","2","16","{""Sleep"":[""2""],""Eat"":[""16""]}","[0,1]","","","","","","",""
"969.2099999811035","<p>In this experiment, a face and a word will appear in the center of the screen.</p><p>If the face is <strong>happy</strong>, press the letter <strong>H</strong> with <strong>right</strong> index finger.</p><p>If the face is <strong>fearful</strong>, press the letter <strong>F</strong> with <strong>left</strong> index finger.</p><p><strong>Ignore the written words</strong>. Respond as fast as possible while being correct. </p><div style='width: 900px;'><div style='float: left;'><img src='img/stimuli_stroop_happy.png'></img><p class='small'><strong>Press the H key for happy faces</strong></p></div><div class='float: right;'><img src='img/stimuli_stroop_fear.png'></img><p class='small'><strong>Press the F key for faces with fear</strong></p></div></div><p>If the screen turns blank, press <strong>SPACE</strong></p><p><strong>Press any key to begin.</strong></p>","32","html-keyboard-response","8","23869","0.0-8.0","wfcbgc","Tue Feb 09 2021 11:11:14 GMT+0100 (Centraleuropæisk normaltid)","2021","2","9","11","11","14","br00","21","female","right","85","71","5","2","16","","","","","","","","",""
"null","<div style=""font-size:60px;"">+</div>","null","html-keyboard-response","9","26383","0.0-9.0-0.0","wfcbgc","Tue Feb 09 2021 11:11:14 GMT+0100 (Centraleuropæisk normaltid)","2021","2","9","11","11","14","br00","21","female","right","85","71","5","2","16","","","","","fixation","","","",""
"922.2900000168011","img/image_stim_f_stroop.png","72","image-keyboard-response","10","27319","0.0-9.0-1.0","wfcbgc","Tue Feb 09 2021 11:11:14 GMT+0100 (Centraleuropæisk normaltid)","2021","2","9","11","11","14","br00","21","female","right","85","71","5","2","16","","","","","test","fear","happy","f","false"
"null","<div style=""font-size:60px;"">+</div>","null","html-keyboard-response","11","28828","0.0-9.0-0.1","wfcbgc","Tue Feb 09 2021 11:11:14 GMT+0100 (Centraleuropæisk normaltid)","2021","2","9","11","11","14","br00","21","female","right","85","71","5","2","16","","","","","fixation","","","",""
"938.5400000028312","img/image_stim_f.png","70","image-keyboard-response","12","29769","0.0-9.0-1.1","wfcbgc","Tue Feb 09 2021 11:11:14 GMT+0100 (Centraleuropæisk normaltid)","2021","2","9","11","11","14","br00","21","female","right","85","71","5","2","16","","","","","test","fear","fear","f","true"
"null","<div style=""font-size:60px;"">+</div>","null","html-keyboard-response","13","31278","0.0-9.0-0.2","wfcbgc","Tue Feb 09 2021 11:11:14 GMT+0100 (Centraleuropæisk normaltid)","2021","2","9","11","11","14","br00","21","female","right","85","71","5","2","16","","","","","fixation","","","",""
"649.5849999773782","img/image_stim_h_stroop.png","72","image-keyboard-response","14","31930","0.0-9.0-1.2","wfcbgc","Tue Feb 09 2021 11:11:14 GMT+0100 (Centraleuropæisk normaltid)","2021","2","9","11","11","14","br00","21","female","right","85","71","5","2","16","","","","","test","happy","fear","h","true"
"null","<div style=""font-size:60px;"">+</div>","null","html-keyboard-response","15","33688","0.0-9.0-0.3","wfcbgc","Tue Feb 09 2021 11:11:14 GMT+0100 (Centraleuropæisk normaltid)","2021","2","9","11","11","14","br00","21","female","right","85","71","5","2","16","","","","","fixation","","","",""
"492.6250000135042","img/image_stim_h.png","72","image-keyboard-response","16","34184","0.0-9.0-1.3","wfcbgc","Tue Feb 09 2021 11:11:14 GMT+0100 (Centraleuropæisk normaltid)","2021","2","9","11","11","14","br00","21","female","right","85","71","5","2","16","","","","","test","happy","happy","h","true"
"null","<div style=""font-size:60px;"">+</div>","null","html-keyboard-response","17","35443","0.0-9.0-0.4","wfcbgc","Tue Feb 09 2021 11:11:14 GMT+0100 (Centraleuropæisk normaltid)","2021","2","9","11","11","14","br00","21","female","right","85","71","5","2","16","","","","","fixation","","","",""
"606.8749999976717","img/image_stim_f.png","70","image-keyboard-response","18","36052","0.0-9.0-1.4","wfcbgc","Tue Feb 09 2021 11:11:14 GMT+0100 (Centraleuropæisk normaltid)","2021","2","9","11","11","14","br00","21","female","right","85","71","5","2","16","","","","","test","fear","fear","f","true"
"null","<div style=""font-size:60px;"">+</div>","null","html-keyboard-response","19","36311","0.0-9.0-0.5","wfcbgc","Tue Feb 09 2021 11:11:14 GMT+0100 (Centraleuropæisk normaltid)","2021","2","9","11","11","14","br00","21","female","right","85","71","5","2","16","","","","","fixation","","","",""
"475.37499997997656","img/image_stim_f_stroop.png","70","image-keyboard-response","20","36789","0.0-9.0-1.5","wfcbgc","Tue Feb 09 2021 11:11:14 GMT+0100 (Centraleuropæisk normaltid)","2021","2","9","11","11","14","br00","21","female","right","85","71","5","2","16","","","","","test","fear","happy","f","true"
"null","<div style=""font-size:60px;"">+</div>","null","html-keyboard-response","21","37548","0.0-9.0-0.6","wfcbgc","Tue Feb 09 2021 11:11:14 GMT+0100 (Centraleuropæisk normaltid)","2021","2","9","11","11","14","br00","21","female","right","85","71","5","2","16","","","","","fixation","","","",""
"483.0050000164192","img/image_stim_h_stroop.png","72","image-keyboard-response","22","38034","0.0-9.0-1.6","wfcbgc","Tue Feb 09 2021 11:11:14 GMT+0100 (Centraleuropæisk normaltid)","2021","2","9","11","11","14","br00","21","female","right","85","71","5","2","16","","","","","test","happy","fear","h","true"
"null","<div style=""font-size:60px;"">+</div>","null","html-keyboard-response","23","39295","0.0-9.0-0.7","wfcbgc","Tue Feb 09 2021 11:11:14 GMT+0100 (Centraleuropæisk normaltid)","2021","2","9","11","11","14","br00","21","female","right","85","71","5","2","16","","","","","fixation","","","",""
"658.5000000195578","img/image_stim_h.png","72","image-keyboard-response","24","39956","0.0-9.0-1.7","wfcbgc","Tue Feb 09 2021 11:11:14 GMT+0100 (Centraleuropæisk normaltid)","2021","2","9","11","11","14","br00","21","female","right","85","71","5","2","16","","","","","test","happy","happy","h","true"
"null","<div style=""font-size:60px;"">+</div>","null","html-keyboard-response","25","40461","0.0-9.0-0.8","wfcbgc","Tue Feb 09 2021 11:11:14 GMT+0100 (Centraleuropæisk normaltid)","2021","2","9","11","11","14","br00","21","female","right","85","71","5","2","16","","","","","fixation","","","",""
"562.9150000168011","img/image_stim_f_stroop.png","70","image-keyboard-response","26","41026","0.0-9.0-1.8","wfcbgc","Tue Feb 09 2021 11:11:14 GMT+0100 (Centraleuropæisk normaltid)","2021","2","9","11","11","14","br00","21","female","right","85","71","5","2","16","","","","","test","fear","happy","f","true"
"null","<div style=""font-size:60px;"">+</div>","null","html-keyboard-response","27","42282","0.0-9.0-0.9","wfcbgc","Tue Feb 09 2021 11:11:14 GMT+0100 (Centraleuropæisk normaltid)","2021","2","9","11","11","14","br00","21","female","right","85","71","5","2","16","","","","","fixation","","","",""
"577.3349999799393","img/image_stim_f.png","70","image-keyboard-response","28","42862","0.0-9.0-1.9","wfcbgc","Tue Feb 09 2021 11:11:14 GMT+0100 (Centraleuropæisk normaltid)","2021","2","9","11","11","14","br00","21","female","right","85","71","5","2","16","","","","","test","fear","fear","f","true"
"null","<div style=""font-size:60px;"">+</div>","null","html-keyboard-response","29","44122","0.0-9.0-0.10","wfcbgc","Tue Feb 09 2021 11:11:14 GMT+0100 (Centraleuropæisk normaltid)","2021","2","9","11","11","14","br00","21","female","right","85","71","5","2","16","","","","","fixation","","","",""
"516.540000011446","img/image_stim_h_stroop.png","72","image-keyboard-response","30","44641","0.0-9.0-1.10","wfcbgc","Tue Feb 09 2021 11:11:14 GMT+0100 (Centraleuropæisk normaltid)","2021","2","9","11","11","14","br00","21","female","right","85","71","5","2","16","","","","","test","happy","fear","h","true"
"null","<div style=""font-size:60px;"">+</div>","null","html-keyboard-response","31","45899","0.0-9.0-0.11","wfcbgc","Tue Feb 09 2021 11:11:14 GMT+0100 (Centraleuropæisk normaltid)","2021","2","9","11","11","14","br00","21","female","right","85","71","5","2","16","","","","","fixation","","","",""
"626.3749999925494","img/image_stim_h.png","72","image-keyboard-response","32","46528","0.0-9.0-1.11","wfcbgc","Tue Feb 09 2021 11:11:14 GMT+0100 (Centraleuropæisk normaltid)","2021","2","9","11","11","14","br00","21","female","right","85","71","5","2","16","","","","","test","happy","happy","h","true"
"null","<div style=""font-size:60px;"">+</div>","null","html-keyboard-response","33","47788","0.0-9.0-0.12","wfcbgc","Tue Feb 09 2021 11:11:14 GMT+0100 (Centraleuropæisk normaltid)","2021","2","9","11","11","14","br00","21","female","right","85","71","5","2","16","","","","","fixation","","","",""
"564.0000000130385","img/image_stim_f.png","70","image-keyboard-response","34","48354","0.0-9.0-1.12","wfcbgc","Tue Feb 09 2021 11:11:14 GMT+0100 (Centraleuropæisk normaltid)","2021","2","9","11","11","14","br00","21","female","right","85","71","5","2","16","","","","","test","fear","fear","f","true"
"null","<div style=""font-size:60px;"">+</div>","null","html-keyboard-response","35","49113","0.0-9.0-0.13","wfcbgc","Tue Feb 09 2021 11:11:14 GMT+0100 (Centraleuropæisk normaltid)","2021","2","9","11","11","14","br00","21","female","right","85","71","5","2","16","","","","","fixation","","","",""
"645.2050000079907","img/image_stim_h.png","72","image-keyboard-response","36","49761","0.0-9.0-1.13","wfcbgc","Tue Feb 09 2021 11:11:14 GMT+0100 (Centraleuropæisk normaltid)","2021","2","9","11","11","14","br00","21","female","right","85","71","5","2","16","","","","","test","happy","happy","h","true"
"null","<div style=""font-size:60px;"">+</div>","null","html-keyboard-response","37","51019","0.0-9.0-0.14","wfcbgc","Tue Feb 09 2021 11:11:14 GMT+0100 (Centraleuropæisk normaltid)","2021","2","9","11","11","14","br00","21","female","right","85","71","5","2","16","","","","","fixation","","","",""
"622.3350000218488","img/image_stim_f_stroop.png","70","image-keyboard-response","38","51644","0.0-9.0-1.14","wfcbgc","Tue Feb 09 2021 11:11:14 GMT+0100 (Centraleuropæisk normaltid)","2021","2","9","11","11","14","br00","21","female","right","85","71","5","2","16","","","","","test","fear","happy","f","true"
"null","<div style=""font-size:60px;"">+</div>","null","html-keyboard-response","39","52899","0.0-9.0-0.15","wfcbgc","Tue Feb 09 2021 11:11:14 GMT+0100 (Centraleuropæisk normaltid)","2021","2","9","11","11","14","br00","21","female","right","85","71","5","2","16","","","","","fixation","","","",""
"511.2500000104774","img/image_stim_h_stroop.png","72","image-keyboard-response","40","53413","0.0-9.0-1.15","wfcbgc","Tue Feb 09 2021 11:11:14 GMT+0100 (Centraleuropæisk normaltid)","2021","2","9","11","11","14","br00","21","female","right","85","71","5","2","16","","","","","test","happy","fear","h","true"
"null","<div style=""font-size:60px;"">+</div>","null","html-keyboard-response","41","53669","0.0-9.0-0.16","wfcbgc","Tue Feb 09 2021 11:11:14 GMT+0100 (Centraleuropæisk normaltid)","2021","2","9","11","11","14","br00","21","female","right","85","71","5","2","16","","","","","fixation","","","",""
"492.4999999930151","img/image_stim_h_stroop.png","72","image-keyboard-response","42","54165","0.0-9.0-1.16","wfcbgc","Tue Feb 09 2021 11:11:14 GMT+0100 (Centraleuropæisk normaltid)","2021","2","9","11","11","14","br00","21","female","right","85","71","5","2","16","","","","","test","happy","fear","h","true"
"null","<div style=""font-size:60px;"">+</div>","null","html-keyboard-response","43","55670","0.0-9.0-0.17","wfcbgc","Tue Feb 09 2021 11:11:14 GMT+0100 (Centraleuropæisk normaltid)","2021","2","9","11","11","14","br00","21","female","right","85","71","5","2","16","","","","","fixation","","","",""
"536.244999995688","img/image_stim_f.png","70","image-keyboard-response","44","56208","0.0-9.0-1.17","wfcbgc","Tue Feb 09 2021 11:11:14 GMT+0100 (Centraleuropæisk normaltid)","2021","2","9","11","11","14","br00","21","female","right","85","71","5","2","16","","","","","test","fear","fear","f","true"
"null","<div style=""font-size:60px;"">+</div>","null","html-keyboard-response","45","57713","0.0-9.0-0.18","wfcbgc","Tue Feb 09 2021 11:11:14 GMT+0100 (Centraleuropæisk normaltid)","2021","2","9","11","11","14","br00","21","female","right","85","71","5","2","16","","","","","fixation","","","",""
"599.2899999837391","img/image_stim_f_stroop.png","70","image-keyboard-response","46","58315","0.0-9.0-1.18","wfcbgc","Tue Feb 09 2021 11:11:14 GMT+0100 (Centraleuropæisk normaltid)","2021","2","9","11","11","14","br00","21","female","right","85","71","5","2","16","","","","","test","fear","happy","f","true"
"null","<div style=""font-size:60px;"">+</div>","null","html-keyboard-response","47","59826","0.0-9.0-0.19","wfcbgc","Tue Feb 09 2021 11:11:14 GMT+0100 (Centraleuropæisk normaltid)","2021","2","9","11","11","14","br00","21","female","right","85","71","5","2","16","","","","","fixation","","","",""
"564.5849999855272","img/image_stim_h.png","72","image-keyboard-response","48","60393","0.0-9.0-1.19","wfcbgc","Tue Feb 09 2021 11:11:14 GMT+0100 (Centraleuropæisk normaltid)","2021","2","9","11","11","14","br00","21","female","right","85","71","5","2","16","","","","","test","happy","happy","h","true"
"null","<div style=""font-size:60px;"">+</div>","null","html-keyboard-response","49","62402","0.0-9.0-0.20","wfcbgc","Tue Feb 09 2021 11:11:14 GMT+0100 (Centraleuropæisk normaltid)","2021","2","9","11","11","14","br00","21","female","right","85","71","5","2","16","","","","","fixation","","","",""
"542.5450000038836","img/image_stim_h.png","72","image-keyboard-response","50","62947","0.0-9.0-1.20","wfcbgc","Tue Feb 09 2021 11:11:14 GMT+0100 (Centraleuropæisk normaltid)","2021","2","9","11","11","14","br00","21","female","right","85","71","5","2","16","","","","","test","happy","happy","h","true"
"null","<div style=""font-size:60px;"">+</div>","null","html-keyboard-response","51","64452","0.0-9.0-0.21","wfcbgc","Tue Feb 09 2021 11:11:14 GMT+0100 (Centraleuropæisk normaltid)","2021","2","9","11","11","14","br00","21","female","right","85","71","5","2","16","","","","","fixation","","","",""
"455.1250000076834","img/image_stim_f.png","72","image-keyboard-response","52","64910","0.0-9.0-1.21","wfcbgc","Tue Feb 09 2021 11:11:14 GMT+0100 (Centraleuropæisk normaltid)","2021","2","9","11","11","14","br00","21","female","right","85","71","5","2","16","","","","","test","fear","fear","f","false"
"null","<div style=""font-size:60px;"">+</div>","null","html-keyboard-response","53","66918","0.0-9.0-0.22","wfcbgc","Tue Feb 09 2021 11:11:14 GMT+0100 (Centraleuropæisk normaltid)","2021","2","9","11","11","14","br00","21","female","right","85","71","5","2","16","","","","","fixation","","","",""
"554.1200000152458","img/image_stim_h_stroop.png","72","image-keyboard-response","54","67475","0.0-9.0-1.22","wfcbgc","Tue Feb 09 2021 11:11:14 GMT+0100 (Centraleuropæisk normaltid)","2021","2","9","11","11","14","br00","21","female","right","85","71","5","2","16","","","","","test","happy","fear","h","true"
"null","<div style=""font-size:60px;"">+</div>","null","html-keyboard-response","55","69236","0.0-9.0-0.23","wfcbgc","Tue Feb 09 2021 11:11:14 GMT+0100 (Centraleuropæisk normaltid)","2021","2","9","11","11","14","br00","21","female","right","85","71","5","2","16","","","","","fixation","","","",""
"538.7899999914225","img/image_stim_f_stroop.png","70","image-keyboard-response","56","69778","0.0-9.0-1.23","wfcbgc","Tue Feb 09 2021 11:11:14 GMT+0100 (Centraleuropæisk normaltid)","2021","2","9","11","11","14","br00","21","female","right","85","71","5","2","16","","","","","test","fear","happy","f","true"
"null","<div style=""font-size:60px;"">+</div>","null","html-keyboard-response","57","70539","0.0-9.0-0.24","wfcbgc","Tue Feb 09 2021 11:11:14 GMT+0100 (Centraleuropæisk normaltid)","2021","2","9","11","11","14","br00","21","female","right","85","71","5","2","16","","","","","fixation","","","",""
"779.6249999955762","img/image_stim_h_stroop.png","72","image-keyboard-response","58","71321","0.0-9.0-1.24","wfcbgc","Tue Feb 09 2021 11:11:14 GMT+0100 (Centraleuropæisk normaltid)","2021","2","9","11","11","14","br00","21","female","right","85","71","5","2","16","","","","","test","happy","fear","h","true"
"null","<div style=""font-size:60px;"">+</div>","null","html-keyboard-response","59","72080","0.0-9.0-0.25","wfcbgc","Tue Feb 09 2021 11:11:14 GMT+0100 (Centraleuropæisk normaltid)","2021","2","9","11","11","14","br00","21","female","right","85","71","5","2","16","","","","","fixation","","","",""
"615.7100000127684","img/image_stim_f_stroop.png","70","image-keyboard-response","60","72698","0.0-9.0-1.25","wfcbgc","Tue Feb 09 2021 11:11:14 GMT+0100 (Centraleuropæisk normaltid)","2021","2","9","11","11","14","br00","21","female","right","85","71","5","2","16","","","","","test","fear","happy","f","true"
"null","<div style=""font-size:60px;"">+</div>","null","html-keyboard-response","61","74207","0.0-9.0-0.26","wfcbgc","Tue Feb 09 2021 11:11:14 GMT+0100 (Centraleuropæisk normaltid)","2021","2","9","11","11","14","br00","21","female","right","85","71","5","2","16","","","","","fixation","","","",""
"539.169999974547","img/image_stim_h.png","72","image-keyboard-response","62","74749","0.0-9.0-1.26","wfcbgc","Tue Feb 09 2021 11:11:14 GMT+0100 (Centraleuropæisk normaltid)","2021","2","9","11","11","14","br00","21","female","right","85","71","5","2","16","","","","","test","happy","happy","h","true"
"null","<div style=""font-size:60px;"">+</div>","null","html-keyboard-response","63","75010","0.0-9.0-0.27","wfcbgc","Tue Feb 09 2021 11:11:14 GMT+0100 (Centraleuropæisk normaltid)","2021","2","9","11","11","14","br00","21","female","right","85","71","5","2","16","","","","","fixation","","","",""
"576.375000004191","img/image_stim_f.png","70","image-keyboard-response","64","75589","0.0-9.0-1.27","wfcbgc","Tue Feb 09 2021 11:11:14 GMT+0100 (Centraleuropæisk normaltid)","2021","2","9","11","11","14","br00","21","female","right","85","71","5","2","16","","","","","test","fear","fear","f","true"
"null","<div style=""font-size:60px;"">+</div>","null","html-keyboard-response","65","75848","0.0-9.0-0.28","wfcbgc","Tue Feb 09 2021 11:11:14 GMT+0100 (Centraleuropæisk normaltid)","2021","2","9","11","11","14","br00","21","female","right","85","71","5","2","16","","","","","fixation","","","",""
"620.2499999781139","img/image_stim_h_stroop.png","72","image-keyboard-response","66","76471","0.0-9.0-1.28","wfcbgc","Tue Feb 09 2021 11:11:14 GMT+0100 (Centraleuropæisk normaltid)","2021","2","9","11","11","14","br00","21","female","right","85","71","5","2","16","","","","","test","happy","fear","h","true"
"null","<div style=""font-size:60px;"">+</div>","null","html-keyboard-response","67","77728","0.0-9.0-0.29","wfcbgc","Tue Feb 09 2021 11:11:14 GMT+0100 (Centraleuropæisk normaltid)","2021","2","9","11","11","14","br00","21","female","right","85","71","5","2","16","","","","","fixation","","","",""
"596.3349999801721","img/image_stim_f_stroop.png","70","image-keyboard-response","68","78328","0.0-9.0-1.29","wfcbgc","Tue Feb 09 2021 11:11:14 GMT+0100 (Centraleuropæisk normaltid)","2021","2","9","11","11","14","br00","21","female","right","85","71","5","2","16","","","","","test","fear","happy","f","true"
"null","<div style=""font-size:60px;"">+</div>","null","html-keyboard-response","69","78589","0.0-9.0-0.30","wfcbgc","Tue Feb 09 2021 11:11:14 GMT+0100 (Centraleuropæisk normaltid)","2021","2","9","11","11","14","br00","21","female","right","85","71","5","2","16","","","","","fixation","","","",""
"552.4999999906868","img/image_stim_f.png","70","image-keyboard-response","70","79145","0.0-9.0-1.30","wfcbgc","Tue Feb 09 2021 11:11:14 GMT+0100 (Centraleuropæisk normaltid)","2021","2","9","11","11","14","br00","21","female","right","85","71","5","2","16","","","","","test","fear","fear","f","true"
"null","<div style=""font-size:60px;"">+</div>","null","html-keyboard-response","71","80904","0.0-9.0-0.31","wfcbgc","Tue Feb 09 2021 11:11:14 GMT+0100 (Centraleuropæisk normaltid)","2021","2","9","11","11","14","br00","21","female","right","85","71","5","2","16","","","","","fixation","","","",""
"494.24999998882413","img/image_stim_h.png","72","image-keyboard-response","72","81401","0.0-9.0-1.31","wfcbgc","Tue Feb 09 2021 11:11:14 GMT+0100 (Centraleuropæisk normaltid)","2021","2","9","11","11","14","br00","21","female","right","85","71","5","2","16","","","","","test","happy","happy","h","true"
"null","<div style=""font-size:60px;"">+</div>","null","html-keyboard-response","73","82163","0.0-9.0-0.32","wfcbgc","Tue Feb 09 2021 11:11:14 GMT+0100 (Centraleuropæisk normaltid)","2021","2","9","11","11","14","br00","21","female","right","85","71","5","2","16","","","","","fixation","","","",""
"608.2100000057835","img/image_stim_h.png","72","image-keyboard-response","74","82773","0.0-9.0-1.32","wfcbgc","Tue Feb 09 2021 11:11:14 GMT+0100 (Centraleuropæisk normaltid)","2021","2","9","11","11","14","br00","21","female","right","85","71","5","2","16","","","","","test","happy","happy","h","true"
"null","<div style=""font-size:60px;"">+</div>","null","html-keyboard-response","75","84283","0.0-9.0-0.33","wfcbgc","Tue Feb 09 2021 11:11:14 GMT+0100 (Centraleuropæisk normaltid)","2021","2","9","11","11","14","br00","21","female","right","85","71","5","2","16","","","","","fixation","","","",""
"541.7099999904167","img/image_stim_h_stroop.png","72","image-keyboard-response","76","84827","0.0-9.0-1.33","wfcbgc","Tue Feb 09 2021 11:11:14 GMT+0100 (Centraleuropæisk normaltid)","2021","2","9","11","11","14","br00","21","female","right","85","71","5","2","16","","","","","test","happy","fear","h","true"
"null","<div style=""font-size:60px;"">+</div>","null","html-keyboard-response","77","86339","0.0-9.0-0.34","wfcbgc","Tue Feb 09 2021 11:11:14 GMT+0100 (Centraleuropæisk normaltid)","2021","2","9","11","11","14","br00","21","female","right","85","71","5","2","16","","","","","fixation","","","",""
"576.5399999800138","img/image_stim_f_stroop.png","70","image-keyboard-response","78","86918","0.0-9.0-1.34","wfcbgc","Tue Feb 09 2021 11:11:14 GMT+0100 (Centraleuropæisk normaltid)","2021","2","9","11","11","14","br00","21","female","right","85","71","5","2","16","","","","","test","fear","happy","f","true"
"null","<div style=""font-size:60px;"">+</div>","null","html-keyboard-response","79","88679","0.0-9.0-0.35","wfcbgc","Tue Feb 09 2021 11:11:14 GMT+0100 (Centraleuropæisk normaltid)","2021","2","9","11","11","14","br00","21","female","right","85","71","5","2","16","","","","","fixation","","","",""
"431.62499999743886","img/image_stim_f.png","72","image-keyboard-response","80","89113","0.0-9.0-1.35","wfcbgc","Tue Feb 09 2021 11:11:14 GMT+0100 (Centraleuropæisk normaltid)","2021","2","9","11","11","14","br00","21","female","right","85","71","5","2","16","","","","","test","fear","fear","f","false"
