"rt","stimulus","key_press","trial_type","trial_index","time_elapsed","internal_node_id","exp_id","Time","year","month","date","hour","minute","seconds","id","age","Gender","Handedness","mood","fresh","hunger","H_since_Sleep","H_since_Eat","responses","question_order","slider_start","response","test_part","face","word","correct_response","correct"
"1352","<p>Welcome to this experiment on daily rhythms and cognition.</p><p>First you will be asked some questions about yourself.</p><p>Then a short experiment will measure your response time.</p><p>Take the test at different times of the day/night.</p><p>The test is anonymous, but comparing your data across time is important.</p><p>Therefore, please make up and remember a personal ID (two letters+ two numbers).</p><p>Use this ID whenever taking the test.</p><p><strong>Press any key to begin.</strong></p>","32","html-keyboard-response","0","1355","0.0-0.0","u7bmor","Mon Feb 08 2021 22:15:33 GMT+0100 (Centraleuropæisk normaltid)","2021","2","8","22","15","33","bc23","23","female","right","88","73","71","3","6","","","","","","","","",""
"6608","","","survey-text","1","7968","0.0-1.0","u7bmor","Mon Feb 08 2021 22:15:33 GMT+0100 (Centraleuropæisk normaltid)","2021","2","8","22","15","33","bc23","23","female","right","88","73","71","3","6","{""Q0"":""bc23""}","","","","","","","",""
"11562","","","survey-text","2","19533","0.0-2.0","u7bmor","Mon Feb 08 2021 22:15:33 GMT+0100 (Centraleuropæisk normaltid)","2021","2","8","22","15","33","bc23","23","female","right","88","73","71","3","6","{""Q0"":""23""}","","","","","","","",""
"4730","","","survey-multi-select","3","24267","0.0-3.0","u7bmor","Mon Feb 08 2021 22:15:33 GMT+0100 (Centraleuropæisk normaltid)","2021","2","8","22","15","33","bc23","23","female","right","88","73","71","3","6","{""Gender"":[""female""],""Hand"":[""right""]}","[0,1]","","","","","","",""
"8161","<p>How Sad/Angry or Happy are you right now?</p>","","html-slider-response","4","32432","0.0-4.0","u7bmor","Mon Feb 08 2021 22:15:33 GMT+0100 (Centraleuropæisk normaltid)","2021","2","8","22","15","33","bc23","23","female","right","88","73","71","3","6","","","50","88","","","","",""
"7704","<p>How Tired/Sleepy/Distracted or Fresh/Awake/Alert are you right now?</p>","","html-slider-response","5","40138","0.0-5.0","u7bmor","Mon Feb 08 2021 22:15:33 GMT+0100 (Centraleuropæisk normaltid)","2021","2","8","22","15","33","bc23","23","female","right","88","73","71","3","6","","","50","73","","","","",""
"6377","<p>How Hungry or Satiated are you right now?</p>","","html-slider-response","6","46517","0.0-6.0","u7bmor","Mon Feb 08 2021 22:15:33 GMT+0100 (Centraleuropæisk normaltid)","2021","2","8","22","15","33","bc23","23","female","right","88","73","71","3","6","","","50","71","","","","",""
"58984","","","survey-multi-select","7","105517","0.0-7.0","u7bmor","Mon Feb 08 2021 22:15:33 GMT+0100 (Centraleuropæisk normaltid)","2021","2","8","22","15","33","bc23","23","female","right","88","73","71","3","6","{""Sleep"":[""3""],""Eat"":[""6""]}","[0,1]","","","","","","",""
"11866","<p>In this experiment, a face and a word will appear in the center of the screen.</p><p>If the face is <strong>happy</strong>, press the letter <strong>H</strong> with <strong>right</strong> index finger.</p><p>If the face is <strong>fearful</strong>, press the letter <strong>F</strong> with <strong>left</strong> index finger.</p><p><strong>Ignore the written words</strong>. Respond as fast as possible while being correct. </p><div style='width: 900px;'><div style='float: left;'><img src='img/stimuli_stroop_happy.png'></img><p class='small'><strong>Press the H key for happy faces</strong></p></div><div class='float: right;'><img src='img/stimuli_stroop_fear.png'></img><p class='small'><strong>Press the F key for faces with fear</strong></p></div></div><p>If the screen turns blank, press <strong>SPACE</strong></p><p><strong>Press any key to begin.</strong></p>","32","html-keyboard-response","8","117385","0.0-8.0","u7bmor","Mon Feb 08 2021 22:15:33 GMT+0100 (Centraleuropæisk normaltid)","2021","2","8","22","15","33","bc23","23","female","right","88","73","71","3","6","","","","","","","","",""
"null","<div style=""font-size:60px;"">+</div>","null","html-keyboard-response","9","120393","0.0-9.0-0.0","u7bmor","Mon Feb 08 2021 22:15:33 GMT+0100 (Centraleuropæisk normaltid)","2021","2","8","22","15","33","bc23","23","female","right","88","73","71","3","6","","","","","fixation","","","",""
"1312","img/image_stim_h_stroop.png","72","image-keyboard-response","10","121711","0.0-9.0-1.0","u7bmor","Mon Feb 08 2021 22:15:33 GMT+0100 (Centraleuropæisk normaltid)","2021","2","8","22","15","33","bc23","23","female","right","88","73","71","3","6","","","","","test","happy","fear","h","true"
"null","<div style=""font-size:60px;"">+</div>","null","html-keyboard-response","11","123467","0.0-9.0-0.1","u7bmor","Mon Feb 08 2021 22:15:33 GMT+0100 (Centraleuropæisk normaltid)","2021","2","8","22","15","33","bc23","23","female","right","88","73","71","3","6","","","","","fixation","","","",""
"823","img/image_stim_f.png","70","image-keyboard-response","12","124294","0.0-9.0-1.1","u7bmor","Mon Feb 08 2021 22:15:33 GMT+0100 (Centraleuropæisk normaltid)","2021","2","8","22","15","33","bc23","23","female","right","88","73","71","3","6","","","","","test","fear","fear","f","true"
"null","<div style=""font-size:60px;"">+</div>","null","html-keyboard-response","13","125052","0.0-9.0-0.2","u7bmor","Mon Feb 08 2021 22:15:33 GMT+0100 (Centraleuropæisk normaltid)","2021","2","8","22","15","33","bc23","23","female","right","88","73","71","3","6","","","","","fixation","","","",""
"713","img/image_stim_f_stroop.png","70","image-keyboard-response","14","125769","0.0-9.0-1.2","u7bmor","Mon Feb 08 2021 22:15:33 GMT+0100 (Centraleuropæisk normaltid)","2021","2","8","22","15","33","bc23","23","female","right","88","73","71","3","6","","","","","test","fear","happy","f","true"
"null","<div style=""font-size:60px;"">+</div>","null","html-keyboard-response","15","127525","0.0-9.0-0.3","u7bmor","Mon Feb 08 2021 22:15:33 GMT+0100 (Centraleuropæisk normaltid)","2021","2","8","22","15","33","bc23","23","female","right","88","73","71","3","6","","","","","fixation","","","",""
"647","img/image_stim_h.png","72","image-keyboard-response","16","128174","0.0-9.0-1.3","u7bmor","Mon Feb 08 2021 22:15:33 GMT+0100 (Centraleuropæisk normaltid)","2021","2","8","22","15","33","bc23","23","female","right","88","73","71","3","6","","","","","test","happy","happy","h","true"
"null","<div style=""font-size:60px;"">+</div>","null","html-keyboard-response","17","128427","0.0-9.0-0.4","u7bmor","Mon Feb 08 2021 22:15:33 GMT+0100 (Centraleuropæisk normaltid)","2021","2","8","22","15","33","bc23","23","female","right","88","73","71","3","6","","","","","fixation","","","",""
"699","img/image_stim_h.png","72","image-keyboard-response","18","129129","0.0-9.0-1.4","u7bmor","Mon Feb 08 2021 22:15:33 GMT+0100 (Centraleuropæisk normaltid)","2021","2","8","22","15","33","bc23","23","female","right","88","73","71","3","6","","","","","test","happy","happy","h","true"
"null","<div style=""font-size:60px;"">+</div>","null","html-keyboard-response","19","129385","0.0-9.0-0.5","u7bmor","Mon Feb 08 2021 22:15:33 GMT+0100 (Centraleuropæisk normaltid)","2021","2","8","22","15","33","bc23","23","female","right","88","73","71","3","6","","","","","fixation","","","",""
"629","img/image_stim_f_stroop.png","70","image-keyboard-response","20","130015","0.0-9.0-1.5","u7bmor","Mon Feb 08 2021 22:15:33 GMT+0100 (Centraleuropæisk normaltid)","2021","2","8","22","15","33","bc23","23","female","right","88","73","71","3","6","","","","","test","fear","happy","f","true"
"null","<div style=""font-size:60px;"">+</div>","null","html-keyboard-response","21","131269","0.0-9.0-0.6","u7bmor","Mon Feb 08 2021 22:15:33 GMT+0100 (Centraleuropæisk normaltid)","2021","2","8","22","15","33","bc23","23","female","right","88","73","71","3","6","","","","","fixation","","","",""
"561","img/image_stim_h_stroop.png","72","image-keyboard-response","22","131830","0.0-9.0-1.6","u7bmor","Mon Feb 08 2021 22:15:33 GMT+0100 (Centraleuropæisk normaltid)","2021","2","8","22","15","33","bc23","23","female","right","88","73","71","3","6","","","","","test","happy","fear","h","true"
"null","<div style=""font-size:60px;"">+</div>","null","html-keyboard-response","23","133336","0.0-9.0-0.7","u7bmor","Mon Feb 08 2021 22:15:33 GMT+0100 (Centraleuropæisk normaltid)","2021","2","8","22","15","33","bc23","23","female","right","88","73","71","3","6","","","","","fixation","","","",""
"709","img/image_stim_f.png","70","image-keyboard-response","24","134046","0.0-9.0-1.7","u7bmor","Mon Feb 08 2021 22:15:33 GMT+0100 (Centraleuropæisk normaltid)","2021","2","8","22","15","33","bc23","23","female","right","88","73","71","3","6","","","","","test","fear","fear","f","true"
"null","<div style=""font-size:60px;"">+</div>","null","html-keyboard-response","25","135298","0.0-9.0-0.8","u7bmor","Mon Feb 08 2021 22:15:33 GMT+0100 (Centraleuropæisk normaltid)","2021","2","8","22","15","33","bc23","23","female","right","88","73","71","3","6","","","","","fixation","","","",""
"842","img/image_stim_h_stroop.png","72","image-keyboard-response","26","136142","0.0-9.0-1.8","u7bmor","Mon Feb 08 2021 22:15:33 GMT+0100 (Centraleuropæisk normaltid)","2021","2","8","22","15","33","bc23","23","female","right","88","73","71","3","6","","","","","test","happy","fear","h","true"
"null","<div style=""font-size:60px;"">+</div>","null","html-keyboard-response","27","137898","0.0-9.0-0.9","u7bmor","Mon Feb 08 2021 22:15:33 GMT+0100 (Centraleuropæisk normaltid)","2021","2","8","22","15","33","bc23","23","female","right","88","73","71","3","6","","","","","fixation","","","",""
"578","img/image_stim_f.png","70","image-keyboard-response","28","138477","0.0-9.0-1.9","u7bmor","Mon Feb 08 2021 22:15:33 GMT+0100 (Centraleuropæisk normaltid)","2021","2","8","22","15","33","bc23","23","female","right","88","73","71","3","6","","","","","test","fear","fear","f","true"
"null","<div style=""font-size:60px;"">+</div>","null","html-keyboard-response","29","139735","0.0-9.0-0.10","u7bmor","Mon Feb 08 2021 22:15:33 GMT+0100 (Centraleuropæisk normaltid)","2021","2","8","22","15","33","bc23","23","female","right","88","73","71","3","6","","","","","fixation","","","",""
"589","img/image_stim_h.png","72","image-keyboard-response","30","140327","0.0-9.0-1.10","u7bmor","Mon Feb 08 2021 22:15:33 GMT+0100 (Centraleuropæisk normaltid)","2021","2","8","22","15","33","bc23","23","female","right","88","73","71","3","6","","","","","test","happy","happy","h","true"
"null","<div style=""font-size:60px;"">+</div>","null","html-keyboard-response","31","141331","0.0-9.0-0.11","u7bmor","Mon Feb 08 2021 22:15:33 GMT+0100 (Centraleuropæisk normaltid)","2021","2","8","22","15","33","bc23","23","female","right","88","73","71","3","6","","","","","fixation","","","",""
"729","img/image_stim_f_stroop.png","70","image-keyboard-response","32","142062","0.0-9.0-1.11","u7bmor","Mon Feb 08 2021 22:15:33 GMT+0100 (Centraleuropæisk normaltid)","2021","2","8","22","15","33","bc23","23","female","right","88","73","71","3","6","","","","","test","fear","happy","f","true"
"null","<div style=""font-size:60px;"">+</div>","null","html-keyboard-response","33","143569","0.0-9.0-0.12","u7bmor","Mon Feb 08 2021 22:15:33 GMT+0100 (Centraleuropæisk normaltid)","2021","2","8","22","15","33","bc23","23","female","right","88","73","71","3","6","","","","","fixation","","","",""
"507","img/image_stim_h.png","72","image-keyboard-response","34","144078","0.0-9.0-1.12","u7bmor","Mon Feb 08 2021 22:15:33 GMT+0100 (Centraleuropæisk normaltid)","2021","2","8","22","15","33","bc23","23","female","right","88","73","71","3","6","","","","","test","happy","happy","h","true"
"null","<div style=""font-size:60px;"">+</div>","null","html-keyboard-response","35","145084","0.0-9.0-0.13","u7bmor","Mon Feb 08 2021 22:15:33 GMT+0100 (Centraleuropæisk normaltid)","2021","2","8","22","15","33","bc23","23","female","right","88","73","71","3","6","","","","","fixation","","","",""
"584","img/image_stim_f.png","70","image-keyboard-response","36","145669","0.0-9.0-1.13","u7bmor","Mon Feb 08 2021 22:15:33 GMT+0100 (Centraleuropæisk normaltid)","2021","2","8","22","15","33","bc23","23","female","right","88","73","71","3","6","","","","","test","fear","fear","f","true"
"null","<div style=""font-size:60px;"">+</div>","null","html-keyboard-response","37","146426","0.0-9.0-0.14","u7bmor","Mon Feb 08 2021 22:15:33 GMT+0100 (Centraleuropæisk normaltid)","2021","2","8","22","15","33","bc23","23","female","right","88","73","71","3","6","","","","","fixation","","","",""
"589","img/image_stim_f_stroop.png","70","image-keyboard-response","38","147015","0.0-9.0-1.14","u7bmor","Mon Feb 08 2021 22:15:33 GMT+0100 (Centraleuropæisk normaltid)","2021","2","8","22","15","33","bc23","23","female","right","88","73","71","3","6","","","","","test","fear","happy","f","true"
"null","<div style=""font-size:60px;"">+</div>","null","html-keyboard-response","39","147522","0.0-9.0-0.15","u7bmor","Mon Feb 08 2021 22:15:33 GMT+0100 (Centraleuropæisk normaltid)","2021","2","8","22","15","33","bc23","23","female","right","88","73","71","3","6","","","","","fixation","","","",""
"498","img/image_stim_h_stroop.png","72","image-keyboard-response","40","148021","0.0-9.0-1.15","u7bmor","Mon Feb 08 2021 22:15:33 GMT+0100 (Centraleuropæisk normaltid)","2021","2","8","22","15","33","bc23","23","female","right","88","73","71","3","6","","","","","test","happy","fear","h","true"
"null","<div style=""font-size:60px;"">+</div>","null","html-keyboard-response","41","148776","0.0-9.0-0.16","u7bmor","Mon Feb 08 2021 22:15:33 GMT+0100 (Centraleuropæisk normaltid)","2021","2","8","22","15","33","bc23","23","female","right","88","73","71","3","6","","","","","fixation","","","",""
"566","img/image_stim_h_stroop.png","72","image-keyboard-response","42","149344","0.0-9.0-1.16","u7bmor","Mon Feb 08 2021 22:15:33 GMT+0100 (Centraleuropæisk normaltid)","2021","2","8","22","15","33","bc23","23","female","right","88","73","71","3","6","","","","","test","happy","fear","h","true"
"null","<div style=""font-size:60px;"">+</div>","null","html-keyboard-response","43","151098","0.0-9.0-0.17","u7bmor","Mon Feb 08 2021 22:15:33 GMT+0100 (Centraleuropæisk normaltid)","2021","2","8","22","15","33","bc23","23","female","right","88","73","71","3","6","","","","","fixation","","","",""
"1170","img/image_stim_f.png","70","image-keyboard-response","44","152269","0.0-9.0-1.17","u7bmor","Mon Feb 08 2021 22:15:33 GMT+0100 (Centraleuropæisk normaltid)","2021","2","8","22","15","33","bc23","23","female","right","88","73","71","3","6","","","","","test","fear","fear","f","true"
"null","<div style=""font-size:60px;"">+</div>","null","html-keyboard-response","45","154023","0.0-9.0-0.18","u7bmor","Mon Feb 08 2021 22:15:33 GMT+0100 (Centraleuropæisk normaltid)","2021","2","8","22","15","33","bc23","23","female","right","88","73","71","3","6","","","","","fixation","","","",""
"644","img/image_stim_h.png","72","image-keyboard-response","46","154670","0.0-9.0-1.18","u7bmor","Mon Feb 08 2021 22:15:33 GMT+0100 (Centraleuropæisk normaltid)","2021","2","8","22","15","33","bc23","23","female","right","88","73","71","3","6","","","","","test","happy","happy","h","true"
"null","<div style=""font-size:60px;"">+</div>","null","html-keyboard-response","47","155425","0.0-9.0-0.19","u7bmor","Mon Feb 08 2021 22:15:33 GMT+0100 (Centraleuropæisk normaltid)","2021","2","8","22","15","33","bc23","23","female","right","88","73","71","3","6","","","","","fixation","","","",""
"619","img/image_stim_f_stroop.png","70","image-keyboard-response","48","156046","0.0-9.0-1.19","u7bmor","Mon Feb 08 2021 22:15:33 GMT+0100 (Centraleuropæisk normaltid)","2021","2","8","22","15","33","bc23","23","female","right","88","73","71","3","6","","","","","test","fear","happy","f","true"
"null","<div style=""font-size:60px;"">+</div>","null","html-keyboard-response","49","157047","0.0-9.0-0.20","u7bmor","Mon Feb 08 2021 22:15:33 GMT+0100 (Centraleuropæisk normaltid)","2021","2","8","22","15","33","bc23","23","female","right","88","73","71","3","6","","","","","fixation","","","",""
"478","img/image_stim_f_stroop.png","72","image-keyboard-response","50","157526","0.0-9.0-1.20","u7bmor","Mon Feb 08 2021 22:15:33 GMT+0100 (Centraleuropæisk normaltid)","2021","2","8","22","15","33","bc23","23","female","right","88","73","71","3","6","","","","","test","fear","happy","f","false"
"null","<div style=""font-size:60px;"">+</div>","null","html-keyboard-response","51","157779","0.0-9.0-0.21","u7bmor","Mon Feb 08 2021 22:15:33 GMT+0100 (Centraleuropæisk normaltid)","2021","2","8","22","15","33","bc23","23","female","right","88","73","71","3","6","","","","","fixation","","","",""
"584","img/image_stim_f.png","70","image-keyboard-response","52","158365","0.0-9.0-1.21","u7bmor","Mon Feb 08 2021 22:15:33 GMT+0100 (Centraleuropæisk normaltid)","2021","2","8","22","15","33","bc23","23","female","right","88","73","71","3","6","","","","","test","fear","fear","f","true"
"null","<div style=""font-size:60px;"">+</div>","null","html-keyboard-response","53","159622","0.0-9.0-0.22","u7bmor","Mon Feb 08 2021 22:15:33 GMT+0100 (Centraleuropæisk normaltid)","2021","2","8","22","15","33","bc23","23","female","right","88","73","71","3","6","","","","","fixation","","","",""
"853","img/image_stim_h_stroop.png","72","image-keyboard-response","54","160477","0.0-9.0-1.22","u7bmor","Mon Feb 08 2021 22:15:33 GMT+0100 (Centraleuropæisk normaltid)","2021","2","8","22","15","33","bc23","23","female","right","88","73","71","3","6","","","","","test","happy","fear","h","true"
"null","<div style=""font-size:60px;"">+</div>","null","html-keyboard-response","55","162235","0.0-9.0-0.23","u7bmor","Mon Feb 08 2021 22:15:33 GMT+0100 (Centraleuropæisk normaltid)","2021","2","8","22","15","33","bc23","23","female","right","88","73","71","3","6","","","","","fixation","","","",""
"611","img/image_stim_h.png","72","image-keyboard-response","56","162847","0.0-9.0-1.23","u7bmor","Mon Feb 08 2021 22:15:33 GMT+0100 (Centraleuropæisk normaltid)","2021","2","8","22","15","33","bc23","23","female","right","88","73","71","3","6","","","","","test","happy","happy","h","true"
"null","<div style=""font-size:60px;"">+</div>","null","html-keyboard-response","57","164104","0.0-9.0-0.24","u7bmor","Mon Feb 08 2021 22:15:33 GMT+0100 (Centraleuropæisk normaltid)","2021","2","8","22","15","33","bc23","23","female","right","88","73","71","3","6","","","","","fixation","","","",""
"492","img/image_stim_h.png","72","image-keyboard-response","58","164597","0.0-9.0-1.24","u7bmor","Mon Feb 08 2021 22:15:33 GMT+0100 (Centraleuropæisk normaltid)","2021","2","8","22","15","33","bc23","23","female","right","88","73","71","3","6","","","","","test","happy","happy","h","true"
"null","<div style=""font-size:60px;"">+</div>","null","html-keyboard-response","59","165604","0.0-9.0-0.25","u7bmor","Mon Feb 08 2021 22:15:33 GMT+0100 (Centraleuropæisk normaltid)","2021","2","8","22","15","33","bc23","23","female","right","88","73","71","3","6","","","","","fixation","","","",""
"687","img/image_stim_f.png","70","image-keyboard-response","60","166293","0.0-9.0-1.25","u7bmor","Mon Feb 08 2021 22:15:33 GMT+0100 (Centraleuropæisk normaltid)","2021","2","8","22","15","33","bc23","23","female","right","88","73","71","3","6","","","","","test","fear","fear","f","true"
"null","<div style=""font-size:60px;"">+</div>","null","html-keyboard-response","61","168048","0.0-9.0-0.26","u7bmor","Mon Feb 08 2021 22:15:33 GMT+0100 (Centraleuropæisk normaltid)","2021","2","8","22","15","33","bc23","23","female","right","88","73","71","3","6","","","","","fixation","","","",""
"595","img/image_stim_h_stroop.png","72","image-keyboard-response","62","168644","0.0-9.0-1.26","u7bmor","Mon Feb 08 2021 22:15:33 GMT+0100 (Centraleuropæisk normaltid)","2021","2","8","22","15","33","bc23","23","female","right","88","73","71","3","6","","","","","test","happy","fear","h","true"
"null","<div style=""font-size:60px;"">+</div>","null","html-keyboard-response","63","170652","0.0-9.0-0.27","u7bmor","Mon Feb 08 2021 22:15:33 GMT+0100 (Centraleuropæisk normaltid)","2021","2","8","22","15","33","bc23","23","female","right","88","73","71","3","6","","","","","fixation","","","",""
"696","img/image_stim_f_stroop.png","70","image-keyboard-response","64","171348","0.0-9.0-1.27","u7bmor","Mon Feb 08 2021 22:15:33 GMT+0100 (Centraleuropæisk normaltid)","2021","2","8","22","15","33","bc23","23","female","right","88","73","71","3","6","","","","","test","fear","happy","f","true"
"null","<div style=""font-size:60px;"">+</div>","null","html-keyboard-response","65","172105","0.0-9.0-0.28","u7bmor","Mon Feb 08 2021 22:15:33 GMT+0100 (Centraleuropæisk normaltid)","2021","2","8","22","15","33","bc23","23","female","right","88","73","71","3","6","","","","","fixation","","","",""
"570","img/image_stim_h.png","72","image-keyboard-response","66","172676","0.0-9.0-1.28","u7bmor","Mon Feb 08 2021 22:15:33 GMT+0100 (Centraleuropæisk normaltid)","2021","2","8","22","15","33","bc23","23","female","right","88","73","71","3","6","","","","","test","happy","happy","h","true"
"null","<div style=""font-size:60px;"">+</div>","null","html-keyboard-response","67","173184","0.0-9.0-0.29","u7bmor","Mon Feb 08 2021 22:15:33 GMT+0100 (Centraleuropæisk normaltid)","2021","2","8","22","15","33","bc23","23","female","right","88","73","71","3","6","","","","","fixation","","","",""
"635","img/image_stim_f_stroop.png","70","image-keyboard-response","68","173821","0.0-9.0-1.29","u7bmor","Mon Feb 08 2021 22:15:33 GMT+0100 (Centraleuropæisk normaltid)","2021","2","8","22","15","33","bc23","23","female","right","88","73","71","3","6","","","","","test","fear","happy","f","true"
"null","<div style=""font-size:60px;"">+</div>","null","html-keyboard-response","69","174076","0.0-9.0-0.30","u7bmor","Mon Feb 08 2021 22:15:33 GMT+0100 (Centraleuropæisk normaltid)","2021","2","8","22","15","33","bc23","23","female","right","88","73","71","3","6","","","","","fixation","","","",""
"792","img/image_stim_f.png","70","image-keyboard-response","70","174870","0.0-9.0-1.30","u7bmor","Mon Feb 08 2021 22:15:33 GMT+0100 (Centraleuropæisk normaltid)","2021","2","8","22","15","33","bc23","23","female","right","88","73","71","3","6","","","","","test","fear","fear","f","true"
"null","<div style=""font-size:60px;"">+</div>","null","html-keyboard-response","71","175627","0.0-9.0-0.31","u7bmor","Mon Feb 08 2021 22:15:33 GMT+0100 (Centraleuropæisk normaltid)","2021","2","8","22","15","33","bc23","23","female","right","88","73","71","3","6","","","","","fixation","","","",""
"537","img/image_stim_h_stroop.png","72","image-keyboard-response","72","176165","0.0-9.0-1.31","u7bmor","Mon Feb 08 2021 22:15:33 GMT+0100 (Centraleuropæisk normaltid)","2021","2","8","22","15","33","bc23","23","female","right","88","73","71","3","6","","","","","test","happy","fear","h","true"
"null","<div style=""font-size:60px;"">+</div>","null","html-keyboard-response","73","177672","0.0-9.0-0.32","u7bmor","Mon Feb 08 2021 22:15:33 GMT+0100 (Centraleuropæisk normaltid)","2021","2","8","22","15","33","bc23","23","female","right","88","73","71","3","6","","","","","fixation","","","",""
"604","img/image_stim_h_stroop.png","72","image-keyboard-response","74","178279","0.0-9.0-1.32","u7bmor","Mon Feb 08 2021 22:15:33 GMT+0100 (Centraleuropæisk normaltid)","2021","2","8","22","15","33","bc23","23","female","right","88","73","71","3","6","","","","","test","happy","fear","h","true"
"null","<div style=""font-size:60px;"">+</div>","null","html-keyboard-response","75","179782","0.0-9.0-0.33","u7bmor","Mon Feb 08 2021 22:15:33 GMT+0100 (Centraleuropæisk normaltid)","2021","2","8","22","15","33","bc23","23","female","right","88","73","71","3","6","","","","","fixation","","","",""
"604","img/image_stim_f_stroop.png","70","image-keyboard-response","76","180389","0.0-9.0-1.33","u7bmor","Mon Feb 08 2021 22:15:33 GMT+0100 (Centraleuropæisk normaltid)","2021","2","8","22","15","33","bc23","23","female","right","88","73","71","3","6","","","","","test","fear","happy","f","true"
"null","<div style=""font-size:60px;"">+</div>","null","html-keyboard-response","77","180897","0.0-9.0-0.34","u7bmor","Mon Feb 08 2021 22:15:33 GMT+0100 (Centraleuropæisk normaltid)","2021","2","8","22","15","33","bc23","23","female","right","88","73","71","3","6","","","","","fixation","","","",""
"636","img/image_stim_f.png","70","image-keyboard-response","78","181534","0.0-9.0-1.34","u7bmor","Mon Feb 08 2021 22:15:33 GMT+0100 (Centraleuropæisk normaltid)","2021","2","8","22","15","33","bc23","23","female","right","88","73","71","3","6","","","","","test","fear","fear","f","true"
"null","<div style=""font-size:60px;"">+</div>","null","html-keyboard-response","79","182543","0.0-9.0-0.35","u7bmor","Mon Feb 08 2021 22:15:33 GMT+0100 (Centraleuropæisk normaltid)","2021","2","8","22","15","33","bc23","23","female","right","88","73","71","3","6","","","","","fixation","","","",""
"564","img/image_stim_h.png","72","image-keyboard-response","80","183108","0.0-9.0-1.35","u7bmor","Mon Feb 08 2021 22:15:33 GMT+0100 (Centraleuropæisk normaltid)","2021","2","8","22","15","33","bc23","23","female","right","88","73","71","3","6","","","","","test","happy","happy","h","true"
