"rt","stimulus","key_press","trial_type","trial_index","time_elapsed","internal_node_id","exp_id","Time","year","month","date","hour","minute","seconds","id","age","Gender","Handedness","mood","fresh","hunger","H_since_Sleep","H_since_Eat","responses","question_order","slider_start","response","test_part","face","word","correct_response","correct"
"5691","<p>Welcome to this experiment on daily rhythms and cognition.</p><p>First you will be asked some questions about yourself.</p><p>Then a short experiment will measure your response time.</p><p>Take the test at different times of the day/night.</p><p>The test is anonymous, but comparing your data across time is important.</p><p>Therefore, please make up and remember a personal ID (two letters+ two numbers).</p><p>Use this ID whenever taking the test.</p><p><strong>Press any key to begin.</strong></p>","32","html-keyboard-response","0","5693","0.0-0.0","mqt038","Wed Feb 16 2022 21:21:13 GMT+0100 (CET)","2022","2","16","21","21","13","mw73","48","male","right","81","76","70","14","2","","","","","","","","",""
"5443.999999999999","","","survey-text","1","11162","0.0-1.0","mqt038","Wed Feb 16 2022 21:21:13 GMT+0100 (CET)","2022","2","16","21","21","13","mw73","48","male","right","81","76","70","14","2","{""Q0"":""mw73""}","","","","","","","",""
"3472","","","survey-text","2","14638","0.0-2.0","mqt038","Wed Feb 16 2022 21:21:13 GMT+0100 (CET)","2022","2","16","21","21","13","mw73","48","male","right","81","76","70","14","2","{""Q0"":""48""}","","","","","","","",""
"4741","","","survey-multi-select","3","19381","0.0-3.0","mqt038","Wed Feb 16 2022 21:21:13 GMT+0100 (CET)","2022","2","16","21","21","13","mw73","48","male","right","81","76","70","14","2","{""Gender"":[""male""],""Hand"":[""right""]}","[0,1]","","","","","","",""
"6087","<p>How Sad/Angry or Happy are you right now?</p>","","html-slider-response","4","25471","0.0-4.0","mqt038","Wed Feb 16 2022 21:21:13 GMT+0100 (CET)","2022","2","16","21","21","13","mw73","48","male","right","81","76","70","14","2","","","50","81","","","","",""
"5223","<p>How Tired/Sleepy/Distracted or Fresh/Awake/Alert are you right now?</p>","","html-slider-response","5","30694","0.0-5.0","mqt038","Wed Feb 16 2022 21:21:13 GMT+0100 (CET)","2022","2","16","21","21","13","mw73","48","male","right","81","76","70","14","2","","","50","76","","","","",""
"5934","<p>How Hungry or Satiated are you right now?</p>","","html-slider-response","6","36629","0.0-6.0","mqt038","Wed Feb 16 2022 21:21:13 GMT+0100 (CET)","2022","2","16","21","21","13","mw73","48","male","right","81","76","70","14","2","","","50","70","","","","",""
"60329.000000000015","","","survey-multi-select","7","96967","0.0-7.0","mqt038","Wed Feb 16 2022 21:21:13 GMT+0100 (CET)","2022","2","16","21","21","13","mw73","48","male","right","81","76","70","14","2","{""Sleep"":[""14""],""Eat"":[""2""]}","[0,1]","","","","","","",""
"14107","<p>In this experiment, a face and a word will appear in the center of the screen.</p><p>If the face is <strong>happy</strong>, press the letter <strong>H</strong> with <strong>right</strong> index finger.</p><p>If the face is <strong>fearful</strong>, press the letter <strong>F</strong> with <strong>left</strong> index finger.</p><p><strong>Ignore the written words</strong>. Respond as fast as possible while being correct. </p><div style='width: 900px;'><div style='float: left;'><img src='img/stimuli_stroop_happy.png'></img><p class='small'><strong>Press the H key for happy faces</strong></p></div><div class='float: right;'><img src='img/stimuli_stroop_fear.png'></img><p class='small'><strong>Press the F key for faces with fear</strong></p></div></div><p>If the screen turns blank, press <strong>SPACE</strong></p><p><strong>Press any key to begin.</strong></p>","32","html-keyboard-response","8","111075","0.0-8.0","mqt038","Wed Feb 16 2022 21:21:13 GMT+0100 (CET)","2022","2","16","21","21","13","mw73","48","male","right","81","76","70","14","2","","","","","","","","",""
"null","<div style=""font-size:60px;"">+</div>","null","html-keyboard-response","9","113577","0.0-9.0-0.0","mqt038","Wed Feb 16 2022 21:21:13 GMT+0100 (CET)","2022","2","16","21","21","13","mw73","48","male","right","81","76","70","14","2","","","","","fixation","","","",""
"771.9999999999854","img/image_stim_h.png","72","image-keyboard-response","10","114355","0.0-9.0-1.0","mqt038","Wed Feb 16 2022 21:21:13 GMT+0100 (CET)","2022","2","16","21","21","13","mw73","48","male","right","81","76","70","14","2","","","","","test","happy","happy","h","true"
"null","<div style=""font-size:60px;"">+</div>","null","html-keyboard-response","11","115359","0.0-9.0-0.1","mqt038","Wed Feb 16 2022 21:21:13 GMT+0100 (CET)","2022","2","16","21","21","13","mw73","48","male","right","81","76","70","14","2","","","","","fixation","","","",""
"691","img/image_stim_f_stroop.png","70","image-keyboard-response","12","116052","0.0-9.0-1.1","mqt038","Wed Feb 16 2022 21:21:13 GMT+0100 (CET)","2022","2","16","21","21","13","mw73","48","male","right","81","76","70","14","2","","","","","test","fear","happy","f","true"
"null","<div style=""font-size:60px;"">+</div>","null","html-keyboard-response","13","117306","0.0-9.0-0.2","mqt038","Wed Feb 16 2022 21:21:13 GMT+0100 (CET)","2022","2","16","21","21","13","mw73","48","male","right","81","76","70","14","2","","","","","fixation","","","",""
"806","img/image_stim_h_stroop.png","72","image-keyboard-response","14","118116","0.0-9.0-1.2","mqt038","Wed Feb 16 2022 21:21:13 GMT+0100 (CET)","2022","2","16","21","21","13","mw73","48","male","right","81","76","70","14","2","","","","","test","happy","fear","h","true"
"null","<div style=""font-size:60px;"">+</div>","null","html-keyboard-response","15","119620","0.0-9.0-0.3","mqt038","Wed Feb 16 2022 21:21:13 GMT+0100 (CET)","2022","2","16","21","21","13","mw73","48","male","right","81","76","70","14","2","","","","","fixation","","","",""
"610.0000000000146","img/image_stim_f.png","70","image-keyboard-response","16","120235","0.0-9.0-1.3","mqt038","Wed Feb 16 2022 21:21:13 GMT+0100 (CET)","2022","2","16","21","21","13","mw73","48","male","right","81","76","70","14","2","","","","","test","fear","fear","f","true"
"null","<div style=""font-size:60px;"">+</div>","null","html-keyboard-response","17","121239","0.0-9.0-0.4","mqt038","Wed Feb 16 2022 21:21:13 GMT+0100 (CET)","2022","2","16","21","21","13","mw73","48","male","right","81","76","70","14","2","","","","","fixation","","","",""
"723","img/image_stim_h.png","72","image-keyboard-response","18","121963","0.0-9.0-1.4","mqt038","Wed Feb 16 2022 21:21:13 GMT+0100 (CET)","2022","2","16","21","21","13","mw73","48","male","right","81","76","70","14","2","","","","","test","happy","happy","h","true"
"null","<div style=""font-size:60px;"">+</div>","null","html-keyboard-response","19","123715","0.0-9.0-0.5","mqt038","Wed Feb 16 2022 21:21:13 GMT+0100 (CET)","2022","2","16","21","21","13","mw73","48","male","right","81","76","70","14","2","","","","","fixation","","","",""
"524","img/image_stim_f_stroop.png","70","image-keyboard-response","20","124242","0.0-9.0-1.5","mqt038","Wed Feb 16 2022 21:21:13 GMT+0100 (CET)","2022","2","16","21","21","13","mw73","48","male","right","81","76","70","14","2","","","","","test","fear","happy","f","true"
"null","<div style=""font-size:60px;"">+</div>","null","html-keyboard-response","21","124495","0.0-9.0-0.6","mqt038","Wed Feb 16 2022 21:21:13 GMT+0100 (CET)","2022","2","16","21","21","13","mw73","48","male","right","81","76","70","14","2","","","","","fixation","","","",""
"839","img/image_stim_f.png","72","image-keyboard-response","22","125336","0.0-9.0-1.6","mqt038","Wed Feb 16 2022 21:21:13 GMT+0100 (CET)","2022","2","16","21","21","13","mw73","48","male","right","81","76","70","14","2","","","","","test","fear","fear","f","false"
"null","<div style=""font-size:60px;"">+</div>","null","html-keyboard-response","23","127089","0.0-9.0-0.7","mqt038","Wed Feb 16 2022 21:21:13 GMT+0100 (CET)","2022","2","16","21","21","13","mw73","48","male","right","81","76","70","14","2","","","","","fixation","","","",""
"657","img/image_stim_h_stroop.png","72","image-keyboard-response","24","127748","0.0-9.0-1.7","mqt038","Wed Feb 16 2022 21:21:13 GMT+0100 (CET)","2022","2","16","21","21","13","mw73","48","male","right","81","76","70","14","2","","","","","test","happy","fear","h","true"
"null","<div style=""font-size:60px;"">+</div>","null","html-keyboard-response","25","128750","0.0-9.0-0.8","mqt038","Wed Feb 16 2022 21:21:13 GMT+0100 (CET)","2022","2","16","21","21","13","mw73","48","male","right","81","76","70","14","2","","","","","fixation","","","",""
"716.0000000000146","img/image_stim_h_stroop.png","72","image-keyboard-response","26","129468","0.0-9.0-1.8","mqt038","Wed Feb 16 2022 21:21:13 GMT+0100 (CET)","2022","2","16","21","21","13","mw73","48","male","right","81","76","70","14","2","","","","","test","happy","fear","h","true"
"null","<div style=""font-size:60px;"">+</div>","null","html-keyboard-response","27","131470","0.0-9.0-0.9","mqt038","Wed Feb 16 2022 21:21:13 GMT+0100 (CET)","2022","2","16","21","21","13","mw73","48","male","right","81","76","70","14","2","","","","","fixation","","","",""
"588","img/image_stim_f.png","70","image-keyboard-response","28","132059","0.0-9.0-1.9","mqt038","Wed Feb 16 2022 21:21:13 GMT+0100 (CET)","2022","2","16","21","21","13","mw73","48","male","right","81","76","70","14","2","","","","","test","fear","fear","f","true"
"null","<div style=""font-size:60px;"">+</div>","null","html-keyboard-response","29","133063","0.0-9.0-0.10","mqt038","Wed Feb 16 2022 21:21:13 GMT+0100 (CET)","2022","2","16","21","21","13","mw73","48","male","right","81","76","70","14","2","","","","","fixation","","","",""
"749","img/image_stim_f_stroop.png","70","image-keyboard-response","30","133813","0.0-9.0-1.10","mqt038","Wed Feb 16 2022 21:21:13 GMT+0100 (CET)","2022","2","16","21","21","13","mw73","48","male","right","81","76","70","14","2","","","","","test","fear","happy","f","true"
"null","<div style=""font-size:60px;"">+</div>","null","html-keyboard-response","31","134066","0.0-9.0-0.11","mqt038","Wed Feb 16 2022 21:21:13 GMT+0100 (CET)","2022","2","16","21","21","13","mw73","48","male","right","81","76","70","14","2","","","","","fixation","","","",""
"574","img/image_stim_h.png","72","image-keyboard-response","32","134642","0.0-9.0-1.11","mqt038","Wed Feb 16 2022 21:21:13 GMT+0100 (CET)","2022","2","16","21","21","13","mw73","48","male","right","81","76","70","14","2","","","","","test","happy","happy","h","true"
"null","<div style=""font-size:60px;"">+</div>","null","html-keyboard-response","33","135394","0.0-9.0-0.12","mqt038","Wed Feb 16 2022 21:21:13 GMT+0100 (CET)","2022","2","16","21","21","13","mw73","48","male","right","81","76","70","14","2","","","","","fixation","","","",""
"683","img/image_stim_f_stroop.png","70","image-keyboard-response","34","136078","0.0-9.0-1.12","mqt038","Wed Feb 16 2022 21:21:13 GMT+0100 (CET)","2022","2","16","21","21","13","mw73","48","male","right","81","76","70","14","2","","","","","test","fear","happy","f","true"
"null","<div style=""font-size:60px;"">+</div>","null","html-keyboard-response","35","138081","0.0-9.0-0.13","mqt038","Wed Feb 16 2022 21:21:13 GMT+0100 (CET)","2022","2","16","21","21","13","mw73","48","male","right","81","76","70","14","2","","","","","fixation","","","",""
"640","img/image_stim_h.png","72","image-keyboard-response","36","138722","0.0-9.0-1.13","mqt038","Wed Feb 16 2022 21:21:13 GMT+0100 (CET)","2022","2","16","21","21","13","mw73","48","male","right","81","76","70","14","2","","","","","test","happy","happy","h","true"
"null","<div style=""font-size:60px;"">+</div>","null","html-keyboard-response","37","139474","0.0-9.0-0.14","mqt038","Wed Feb 16 2022 21:21:13 GMT+0100 (CET)","2022","2","16","21","21","13","mw73","48","male","right","81","76","70","14","2","","","","","fixation","","","",""
"597","img/image_stim_h_stroop.png","72","image-keyboard-response","38","140075","0.0-9.0-1.14","mqt038","Wed Feb 16 2022 21:21:13 GMT+0100 (CET)","2022","2","16","21","21","13","mw73","48","male","right","81","76","70","14","2","","","","","test","happy","fear","h","true"
"null","<div style=""font-size:60px;"">+</div>","null","html-keyboard-response","39","142078","0.0-9.0-0.15","mqt038","Wed Feb 16 2022 21:21:13 GMT+0100 (CET)","2022","2","16","21","21","13","mw73","48","male","right","81","76","70","14","2","","","","","fixation","","","",""
"602","img/image_stim_f.png","70","image-keyboard-response","40","142682","0.0-9.0-1.15","mqt038","Wed Feb 16 2022 21:21:13 GMT+0100 (CET)","2022","2","16","21","21","13","mw73","48","male","right","81","76","70","14","2","","","","","test","fear","fear","f","true"
"null","<div style=""font-size:60px;"">+</div>","null","html-keyboard-response","41","144685","0.0-9.0-0.16","mqt038","Wed Feb 16 2022 21:21:13 GMT+0100 (CET)","2022","2","16","21","21","13","mw73","48","male","right","81","76","70","14","2","","","","","fixation","","","",""
"625","img/image_stim_h_stroop.png","72","image-keyboard-response","42","145310","0.0-9.0-1.16","mqt038","Wed Feb 16 2022 21:21:13 GMT+0100 (CET)","2022","2","16","21","21","13","mw73","48","male","right","81","76","70","14","2","","","","","test","happy","fear","h","true"
"null","<div style=""font-size:60px;"">+</div>","null","html-keyboard-response","43","145814","0.0-9.0-0.17","mqt038","Wed Feb 16 2022 21:21:13 GMT+0100 (CET)","2022","2","16","21","21","13","mw73","48","male","right","81","76","70","14","2","","","","","fixation","","","",""
"669","img/image_stim_f_stroop.png","70","image-keyboard-response","44","146484","0.0-9.0-1.17","mqt038","Wed Feb 16 2022 21:21:13 GMT+0100 (CET)","2022","2","16","21","21","13","mw73","48","male","right","81","76","70","14","2","","","","","test","fear","happy","f","true"
"null","<div style=""font-size:60px;"">+</div>","null","html-keyboard-response","45","148487","0.0-9.0-0.18","mqt038","Wed Feb 16 2022 21:21:13 GMT+0100 (CET)","2022","2","16","21","21","13","mw73","48","male","right","81","76","70","14","2","","","","","fixation","","","",""
"585.0000000000291","img/image_stim_h.png","72","image-keyboard-response","46","149072","0.0-9.0-1.18","mqt038","Wed Feb 16 2022 21:21:13 GMT+0100 (CET)","2022","2","16","21","21","13","mw73","48","male","right","81","76","70","14","2","","","","","test","happy","happy","h","true"
"null","<div style=""font-size:60px;"">+</div>","null","html-keyboard-response","47","151076","0.0-9.0-0.19","mqt038","Wed Feb 16 2022 21:21:13 GMT+0100 (CET)","2022","2","16","21","21","13","mw73","48","male","right","81","76","70","14","2","","","","","fixation","","","",""
"673","img/image_stim_f.png","70","image-keyboard-response","48","151751","0.0-9.0-1.19","mqt038","Wed Feb 16 2022 21:21:13 GMT+0100 (CET)","2022","2","16","21","21","13","mw73","48","male","right","81","76","70","14","2","","","","","test","fear","fear","f","true"
"null","<div style=""font-size:60px;"">+</div>","null","html-keyboard-response","49","152753","0.0-9.0-0.20","mqt038","Wed Feb 16 2022 21:21:13 GMT+0100 (CET)","2022","2","16","21","21","13","mw73","48","male","right","81","76","70","14","2","","","","","fixation","","","",""
"522","img/image_stim_h.png","72","image-keyboard-response","50","153277","0.0-9.0-1.20","mqt038","Wed Feb 16 2022 21:21:13 GMT+0100 (CET)","2022","2","16","21","21","13","mw73","48","male","right","81","76","70","14","2","","","","","test","happy","happy","h","true"
"null","<div style=""font-size:60px;"">+</div>","null","html-keyboard-response","51","154279","0.0-9.0-0.21","mqt038","Wed Feb 16 2022 21:21:13 GMT+0100 (CET)","2022","2","16","21","21","13","mw73","48","male","right","81","76","70","14","2","","","","","fixation","","","",""
"677","img/image_stim_h_stroop.png","72","image-keyboard-response","52","154960","0.0-9.0-1.21","mqt038","Wed Feb 16 2022 21:21:13 GMT+0100 (CET)","2022","2","16","21","21","13","mw73","48","male","right","81","76","70","14","2","","","","","test","happy","fear","h","true"
"null","<div style=""font-size:60px;"">+</div>","null","html-keyboard-response","53","156713","0.0-9.0-0.22","mqt038","Wed Feb 16 2022 21:21:13 GMT+0100 (CET)","2022","2","16","21","21","13","mw73","48","male","right","81","76","70","14","2","","","","","fixation","","","",""
"583","img/image_stim_f.png","70","image-keyboard-response","54","157297","0.0-9.0-1.22","mqt038","Wed Feb 16 2022 21:21:13 GMT+0100 (CET)","2022","2","16","21","21","13","mw73","48","male","right","81","76","70","14","2","","","","","test","fear","fear","f","true"
"null","<div style=""font-size:60px;"">+</div>","null","html-keyboard-response","55","158051","0.0-9.0-0.23","mqt038","Wed Feb 16 2022 21:21:13 GMT+0100 (CET)","2022","2","16","21","21","13","mw73","48","male","right","81","76","70","14","2","","","","","fixation","","","",""
"961.0000000000291","img/image_stim_f_stroop.png","70","image-keyboard-response","56","159012","0.0-9.0-1.23","mqt038","Wed Feb 16 2022 21:21:13 GMT+0100 (CET)","2022","2","16","21","21","13","mw73","48","male","right","81","76","70","14","2","","","","","test","fear","happy","f","true"
"null","<div style=""font-size:60px;"">+</div>","null","html-keyboard-response","57","160265","0.0-9.0-0.24","mqt038","Wed Feb 16 2022 21:21:13 GMT+0100 (CET)","2022","2","16","21","21","13","mw73","48","male","right","81","76","70","14","2","","","","","fixation","","","",""
"697","img/image_stim_f_stroop.png","70","image-keyboard-response","58","160964","0.0-9.0-1.24","mqt038","Wed Feb 16 2022 21:21:13 GMT+0100 (CET)","2022","2","16","21","21","13","mw73","48","male","right","81","76","70","14","2","","","","","test","fear","happy","f","true"
"null","<div style=""font-size:60px;"">+</div>","null","html-keyboard-response","59","162216","0.0-9.0-0.25","mqt038","Wed Feb 16 2022 21:21:13 GMT+0100 (CET)","2022","2","16","21","21","13","mw73","48","male","right","81","76","70","14","2","","","","","fixation","","","",""
"536","img/image_stim_h_stroop.png","72","image-keyboard-response","60","162753","0.0-9.0-1.25","mqt038","Wed Feb 16 2022 21:21:13 GMT+0100 (CET)","2022","2","16","21","21","13","mw73","48","male","right","81","76","70","14","2","","","","","test","happy","fear","h","true"
"null","<div style=""font-size:60px;"">+</div>","null","html-keyboard-response","61","163755","0.0-9.0-0.26","mqt038","Wed Feb 16 2022 21:21:13 GMT+0100 (CET)","2022","2","16","21","21","13","mw73","48","male","right","81","76","70","14","2","","","","","fixation","","","",""
"690","img/image_stim_f.png","70","image-keyboard-response","62","164446","0.0-9.0-1.26","mqt038","Wed Feb 16 2022 21:21:13 GMT+0100 (CET)","2022","2","16","21","21","13","mw73","48","male","right","81","76","70","14","2","","","","","test","fear","fear","f","true"
"null","<div style=""font-size:60px;"">+</div>","null","html-keyboard-response","63","164950","0.0-9.0-0.27","mqt038","Wed Feb 16 2022 21:21:13 GMT+0100 (CET)","2022","2","16","21","21","13","mw73","48","male","right","81","76","70","14","2","","","","","fixation","","","",""
"542","img/image_stim_h.png","72","image-keyboard-response","64","165492","0.0-9.0-1.27","mqt038","Wed Feb 16 2022 21:21:13 GMT+0100 (CET)","2022","2","16","21","21","13","mw73","48","male","right","81","76","70","14","2","","","","","test","happy","happy","h","true"
"null","<div style=""font-size:60px;"">+</div>","null","html-keyboard-response","65","166995","0.0-9.0-0.28","mqt038","Wed Feb 16 2022 21:21:13 GMT+0100 (CET)","2022","2","16","21","21","13","mw73","48","male","right","81","76","70","14","2","","","","","fixation","","","",""
"635.0000000000291","img/image_stim_f.png","70","image-keyboard-response","66","167632","0.0-9.0-1.28","mqt038","Wed Feb 16 2022 21:21:13 GMT+0100 (CET)","2022","2","16","21","21","13","mw73","48","male","right","81","76","70","14","2","","","","","test","fear","fear","f","true"
"null","<div style=""font-size:60px;"">+</div>","null","html-keyboard-response","67","168635","0.0-9.0-0.29","mqt038","Wed Feb 16 2022 21:21:13 GMT+0100 (CET)","2022","2","16","21","21","13","mw73","48","male","right","81","76","70","14","2","","","","","fixation","","","",""
"565","img/image_stim_h_stroop.png","72","image-keyboard-response","68","169200","0.0-9.0-1.29","mqt038","Wed Feb 16 2022 21:21:13 GMT+0100 (CET)","2022","2","16","21","21","13","mw73","48","male","right","81","76","70","14","2","","","","","test","happy","fear","h","true"
"null","<div style=""font-size:60px;"">+</div>","null","html-keyboard-response","69","170704","0.0-9.0-0.30","mqt038","Wed Feb 16 2022 21:21:13 GMT+0100 (CET)","2022","2","16","21","21","13","mw73","48","male","right","81","76","70","14","2","","","","","fixation","","","",""
"657","img/image_stim_h.png","72","image-keyboard-response","70","171361","0.0-9.0-1.30","mqt038","Wed Feb 16 2022 21:21:13 GMT+0100 (CET)","2022","2","16","21","21","13","mw73","48","male","right","81","76","70","14","2","","","","","test","happy","happy","h","true"
"null","<div style=""font-size:60px;"">+</div>","null","html-keyboard-response","71","171614","0.0-9.0-0.31","mqt038","Wed Feb 16 2022 21:21:13 GMT+0100 (CET)","2022","2","16","21","21","13","mw73","48","male","right","81","76","70","14","2","","","","","fixation","","","",""
"595","img/image_stim_f_stroop.png","70","image-keyboard-response","72","172210","0.0-9.0-1.31","mqt038","Wed Feb 16 2022 21:21:13 GMT+0100 (CET)","2022","2","16","21","21","13","mw73","48","male","right","81","76","70","14","2","","","","","test","fear","happy","f","true"
"null","<div style=""font-size:60px;"">+</div>","null","html-keyboard-response","73","173965","0.0-9.0-0.32","mqt038","Wed Feb 16 2022 21:21:13 GMT+0100 (CET)","2022","2","16","21","21","13","mw73","48","male","right","81","76","70","14","2","","","","","fixation","","","",""
"617","img/image_stim_h.png","72","image-keyboard-response","74","174583","0.0-9.0-1.32","mqt038","Wed Feb 16 2022 21:21:13 GMT+0100 (CET)","2022","2","16","21","21","13","mw73","48","male","right","81","76","70","14","2","","","","","test","happy","happy","h","true"
"null","<div style=""font-size:60px;"">+</div>","null","html-keyboard-response","75","175836","0.0-9.0-0.33","mqt038","Wed Feb 16 2022 21:21:13 GMT+0100 (CET)","2022","2","16","21","21","13","mw73","48","male","right","81","76","70","14","2","","","","","fixation","","","",""
"611.0000000000291","img/image_stim_f_stroop.png","70","image-keyboard-response","76","176447","0.0-9.0-1.33","mqt038","Wed Feb 16 2022 21:21:13 GMT+0100 (CET)","2022","2","16","21","21","13","mw73","48","male","right","81","76","70","14","2","","","","","test","fear","happy","f","true"
"null","<div style=""font-size:60px;"">+</div>","null","html-keyboard-response","77","177701","0.0-9.0-0.34","mqt038","Wed Feb 16 2022 21:21:13 GMT+0100 (CET)","2022","2","16","21","21","13","mw73","48","male","right","81","76","70","14","2","","","","","fixation","","","",""
"631","img/image_stim_h_stroop.png","72","image-keyboard-response","78","178332","0.0-9.0-1.34","mqt038","Wed Feb 16 2022 21:21:13 GMT+0100 (CET)","2022","2","16","21","21","13","mw73","48","male","right","81","76","70","14","2","","","","","test","happy","fear","h","true"
"null","<div style=""font-size:60px;"">+</div>","null","html-keyboard-response","79","178838","0.0-9.0-0.35","mqt038","Wed Feb 16 2022 21:21:13 GMT+0100 (CET)","2022","2","16","21","21","13","mw73","48","male","right","81","76","70","14","2","","","","","fixation","","","",""
"734.0000000000291","img/image_stim_f.png","70","image-keyboard-response","80","179573","0.0-9.0-1.35","mqt038","Wed Feb 16 2022 21:21:13 GMT+0100 (CET)","2022","2","16","21","21","13","mw73","48","male","right","81","76","70","14","2","","","","","test","fear","fear","f","true"
