"rt","stimulus","key_press","trial_type","trial_index","time_elapsed","internal_node_id","exp_id","Time","year","month","date","hour","minute","seconds","id","age","Gender","Handedness","mood","fresh","hunger","H_since_Sleep","H_since_Eat","responses","question_order","slider_start","response","test_part","face","word","correct_response","correct"
"28163","<p>Welcome to this experiment on daily rhythms and cognition.</p><p>First you will be asked some questions about yourself.</p><p>Then a short experiment will measure your response time.</p><p>Take the test at different times of the day/night.</p><p>The test is anonymous, but comparing your data across time is important.</p><p>Therefore, please make up and remember a personal ID (two letters+ two numbers).</p><p>Use this ID whenever taking the test.</p><p><strong>Press any key to begin.</strong></p>","32","html-keyboard-response","0","28167","0.0-0.0","9epbp6","Wed Feb 17 2021 13:50:07 GMT+0100 (CET)","2021","2","17","13","50","7","ms72","21","female","right","50","20","10","8","7","","","","","","","","",""
"111777","","","survey-text","1","139966","0.0-1.0","9epbp6","Wed Feb 17 2021 13:50:07 GMT+0100 (CET)","2021","2","17","13","50","7","ms72","21","female","right","50","20","10","8","7","{""Q0"":""ms72""}","","","","","","","",""
"3834","","","survey-text","2","143806","0.0-2.0","9epbp6","Wed Feb 17 2021 13:50:07 GMT+0100 (CET)","2021","2","17","13","50","7","ms72","21","female","right","50","20","10","8","7","{""Q0"":""21""}","","","","","","","",""
"6003.999999999971","","","survey-multi-select","3","149813","0.0-3.0","9epbp6","Wed Feb 17 2021 13:50:07 GMT+0100 (CET)","2021","2","17","13","50","7","ms72","21","female","right","50","20","10","8","7","{""Gender"":[""female""],""Hand"":[""right""]}","[0,1]","","","","","","",""
"11321.99999999997","<p>How Sad/Angry or Happy are you right now?</p>","","html-slider-response","4","161137","0.0-4.0","9epbp6","Wed Feb 17 2021 13:50:07 GMT+0100 (CET)","2021","2","17","13","50","7","ms72","21","female","right","50","20","10","8","7","","","50","50","","","","",""
"6823","<p>How Tired/Sleepy/Distracted or Fresh/Awake/Alert are you right now?</p>","","html-slider-response","5","167961","0.0-5.0","9epbp6","Wed Feb 17 2021 13:50:07 GMT+0100 (CET)","2021","2","17","13","50","7","ms72","21","female","right","50","20","10","8","7","","","50","20","","","","",""
"7082","<p>How Hungry or Satiated are you right now?</p>","","html-slider-response","6","175044","0.0-6.0","9epbp6","Wed Feb 17 2021 13:50:07 GMT+0100 (CET)","2021","2","17","13","50","7","ms72","21","female","right","50","20","10","8","7","","","50","10","","","","",""
"31420.00000000003","","","survey-multi-select","7","206476","0.0-7.0","9epbp6","Wed Feb 17 2021 13:50:07 GMT+0100 (CET)","2021","2","17","13","50","7","ms72","21","female","right","50","20","10","8","7","{""Sleep"":[""8""],""Eat"":[""7""]}","[0,1]","","","","","","",""
"26019","<p>In this experiment, a face and a word will appear in the center of the screen.</p><p>If the face is <strong>happy</strong>, press the letter <strong>H</strong> with <strong>right</strong> index finger.</p><p>If the face is <strong>fearful</strong>, press the letter <strong>F</strong> with <strong>left</strong> index finger.</p><p><strong>Ignore the written words</strong>. Respond as fast as possible while being correct. </p><div style='width: 900px;'><div style='float: left;'><img src='img/stimuli_stroop_happy.png'></img><p class='small'><strong>Press the H key for happy faces</strong></p></div><div class='float: right;'><img src='img/stimuli_stroop_fear.png'></img><p class='small'><strong>Press the F key for faces with fear</strong></p></div></div><p>If the screen turns blank, press <strong>SPACE</strong></p><p><strong>Press any key to begin.</strong></p>","32","html-keyboard-response","8","232498","0.0-8.0","9epbp6","Wed Feb 17 2021 13:50:07 GMT+0100 (CET)","2021","2","17","13","50","7","ms72","21","female","right","50","20","10","8","7","","","","","","","","",""
"null","<div style=""font-size:60px;"">+</div>","null","html-keyboard-response","9","236250","0.0-9.0-0.0","9epbp6","Wed Feb 17 2021 13:50:07 GMT+0100 (CET)","2021","2","17","13","50","7","ms72","21","female","right","50","20","10","8","7","","","","","fixation","","","",""
"2244","img/image_stim_h_stroop.png","70","image-keyboard-response","10","238508","0.0-9.0-1.0","9epbp6","Wed Feb 17 2021 13:50:07 GMT+0100 (CET)","2021","2","17","13","50","7","ms72","21","female","right","50","20","10","8","7","","","","","test","happy","fear","h","false"
"null","<div style=""font-size:60px;"">+</div>","null","html-keyboard-response","11","239264","0.0-9.0-0.1","9epbp6","Wed Feb 17 2021 13:50:07 GMT+0100 (CET)","2021","2","17","13","50","7","ms72","21","female","right","50","20","10","8","7","","","","","fixation","","","",""
"1589","img/image_stim_h.png","70","image-keyboard-response","12","240856","0.0-9.0-1.1","9epbp6","Wed Feb 17 2021 13:50:07 GMT+0100 (CET)","2021","2","17","13","50","7","ms72","21","female","right","50","20","10","8","7","","","","","test","happy","happy","h","false"
"null","<div style=""font-size:60px;"">+</div>","null","html-keyboard-response","13","242358","0.0-9.0-0.2","9epbp6","Wed Feb 17 2021 13:50:07 GMT+0100 (CET)","2021","2","17","13","50","7","ms72","21","female","right","50","20","10","8","7","","","","","fixation","","","",""
"1291","img/image_stim_f.png","70","image-keyboard-response","14","243652","0.0-9.0-1.2","9epbp6","Wed Feb 17 2021 13:50:07 GMT+0100 (CET)","2021","2","17","13","50","7","ms72","21","female","right","50","20","10","8","7","","","","","test","fear","fear","f","true"
"null","<div style=""font-size:60px;"">+</div>","null","html-keyboard-response","15","245404","0.0-9.0-0.3","9epbp6","Wed Feb 17 2021 13:50:07 GMT+0100 (CET)","2021","2","17","13","50","7","ms72","21","female","right","50","20","10","8","7","","","","","fixation","","","",""
"843","img/image_stim_f_stroop.png","70","image-keyboard-response","16","246249","0.0-9.0-1.3","9epbp6","Wed Feb 17 2021 13:50:07 GMT+0100 (CET)","2021","2","17","13","50","7","ms72","21","female","right","50","20","10","8","7","","","","","test","fear","happy","f","true"
"null","<div style=""font-size:60px;"">+</div>","null","html-keyboard-response","17","246502","0.0-9.0-0.4","9epbp6","Wed Feb 17 2021 13:50:07 GMT+0100 (CET)","2021","2","17","13","50","7","ms72","21","female","right","50","20","10","8","7","","","","","fixation","","","",""
"1047","img/image_stim_h.png","72","image-keyboard-response","18","247551","0.0-9.0-1.4","9epbp6","Wed Feb 17 2021 13:50:07 GMT+0100 (CET)","2021","2","17","13","50","7","ms72","21","female","right","50","20","10","8","7","","","","","test","happy","happy","h","true"
"null","<div style=""font-size:60px;"">+</div>","null","html-keyboard-response","19","248803","0.0-9.0-0.5","9epbp6","Wed Feb 17 2021 13:50:07 GMT+0100 (CET)","2021","2","17","13","50","7","ms72","21","female","right","50","20","10","8","7","","","","","fixation","","","",""
"751.9999999999709","img/image_stim_f_stroop.png","70","image-keyboard-response","20","249556","0.0-9.0-1.5","9epbp6","Wed Feb 17 2021 13:50:07 GMT+0100 (CET)","2021","2","17","13","50","7","ms72","21","female","right","50","20","10","8","7","","","","","test","fear","happy","f","true"
"null","<div style=""font-size:60px;"">+</div>","null","html-keyboard-response","21","250808","0.0-9.0-0.6","9epbp6","Wed Feb 17 2021 13:50:07 GMT+0100 (CET)","2021","2","17","13","50","7","ms72","21","female","right","50","20","10","8","7","","","","","fixation","","","",""
"1363.999999999971","img/image_stim_f.png","70","image-keyboard-response","22","252174","0.0-9.0-1.6","9epbp6","Wed Feb 17 2021 13:50:07 GMT+0100 (CET)","2021","2","17","13","50","7","ms72","21","female","right","50","20","10","8","7","","","","","test","fear","fear","f","true"
"null","<div style=""font-size:60px;"">+</div>","null","html-keyboard-response","23","254176","0.0-9.0-0.7","9epbp6","Wed Feb 17 2021 13:50:07 GMT+0100 (CET)","2021","2","17","13","50","7","ms72","21","female","right","50","20","10","8","7","","","","","fixation","","","",""
"879.9999999999709","img/image_stim_h_stroop.png","72","image-keyboard-response","24","255058","0.0-9.0-1.7","9epbp6","Wed Feb 17 2021 13:50:07 GMT+0100 (CET)","2021","2","17","13","50","7","ms72","21","female","right","50","20","10","8","7","","","","","test","happy","fear","h","true"
"null","<div style=""font-size:60px;"">+</div>","null","html-keyboard-response","25","256310","0.0-9.0-0.8","9epbp6","Wed Feb 17 2021 13:50:07 GMT+0100 (CET)","2021","2","17","13","50","7","ms72","21","female","right","50","20","10","8","7","","","","","fixation","","","",""
"470.0000000000291","img/image_stim_f_stroop.png","70","image-keyboard-response","26","256782","0.0-9.0-1.8","9epbp6","Wed Feb 17 2021 13:50:07 GMT+0100 (CET)","2021","2","17","13","50","7","ms72","21","female","right","50","20","10","8","7","","","","","test","fear","happy","f","true"
"null","<div style=""font-size:60px;"">+</div>","null","html-keyboard-response","27","258035","0.0-9.0-0.9","9epbp6","Wed Feb 17 2021 13:50:07 GMT+0100 (CET)","2021","2","17","13","50","7","ms72","21","female","right","50","20","10","8","7","","","","","fixation","","","",""
"678","img/image_stim_f.png","70","image-keyboard-response","28","258715","0.0-9.0-1.9","9epbp6","Wed Feb 17 2021 13:50:07 GMT+0100 (CET)","2021","2","17","13","50","7","ms72","21","female","right","50","20","10","8","7","","","","","test","fear","fear","f","true"
"null","<div style=""font-size:60px;"">+</div>","null","html-keyboard-response","29","260218","0.0-9.0-0.10","9epbp6","Wed Feb 17 2021 13:50:07 GMT+0100 (CET)","2021","2","17","13","50","7","ms72","21","female","right","50","20","10","8","7","","","","","fixation","","","",""
"531.0000000000291","img/image_stim_h.png","72","image-keyboard-response","30","260750","0.0-9.0-1.10","9epbp6","Wed Feb 17 2021 13:50:07 GMT+0100 (CET)","2021","2","17","13","50","7","ms72","21","female","right","50","20","10","8","7","","","","","test","happy","happy","h","true"
"null","<div style=""font-size:60px;"">+</div>","null","html-keyboard-response","31","261753","0.0-9.0-0.11","9epbp6","Wed Feb 17 2021 13:50:07 GMT+0100 (CET)","2021","2","17","13","50","7","ms72","21","female","right","50","20","10","8","7","","","","","fixation","","","",""
"601","img/image_stim_h_stroop.png","72","image-keyboard-response","32","262355","0.0-9.0-1.11","9epbp6","Wed Feb 17 2021 13:50:07 GMT+0100 (CET)","2021","2","17","13","50","7","ms72","21","female","right","50","20","10","8","7","","","","","test","happy","fear","h","true"
"null","<div style=""font-size:60px;"">+</div>","null","html-keyboard-response","33","262607","0.0-9.0-0.12","9epbp6","Wed Feb 17 2021 13:50:07 GMT+0100 (CET)","2021","2","17","13","50","7","ms72","21","female","right","50","20","10","8","7","","","","","fixation","","","",""
"697","img/image_stim_h_stroop.png","72","image-keyboard-response","34","263306","0.0-9.0-1.12","9epbp6","Wed Feb 17 2021 13:50:07 GMT+0100 (CET)","2021","2","17","13","50","7","ms72","21","female","right","50","20","10","8","7","","","","","test","happy","fear","h","true"
"null","<div style=""font-size:60px;"">+</div>","null","html-keyboard-response","35","264559","0.0-9.0-0.13","9epbp6","Wed Feb 17 2021 13:50:07 GMT+0100 (CET)","2021","2","17","13","50","7","ms72","21","female","right","50","20","10","8","7","","","","","fixation","","","",""
"443","img/image_stim_f_stroop.png","70","image-keyboard-response","36","265003","0.0-9.0-1.13","9epbp6","Wed Feb 17 2021 13:50:07 GMT+0100 (CET)","2021","2","17","13","50","7","ms72","21","female","right","50","20","10","8","7","","","","","test","fear","happy","f","true"
"null","<div style=""font-size:60px;"">+</div>","null","html-keyboard-response","37","265756","0.0-9.0-0.14","9epbp6","Wed Feb 17 2021 13:50:07 GMT+0100 (CET)","2021","2","17","13","50","7","ms72","21","female","right","50","20","10","8","7","","","","","fixation","","","",""
"512","img/image_stim_h.png","72","image-keyboard-response","38","266269","0.0-9.0-1.14","9epbp6","Wed Feb 17 2021 13:50:07 GMT+0100 (CET)","2021","2","17","13","50","7","ms72","21","female","right","50","20","10","8","7","","","","","test","happy","happy","h","true"
"null","<div style=""font-size:60px;"">+</div>","null","html-keyboard-response","39","267271","0.0-9.0-0.15","9epbp6","Wed Feb 17 2021 13:50:07 GMT+0100 (CET)","2021","2","17","13","50","7","ms72","21","female","right","50","20","10","8","7","","","","","fixation","","","",""
"605","img/image_stim_f.png","70","image-keyboard-response","40","267878","0.0-9.0-1.15","9epbp6","Wed Feb 17 2021 13:50:07 GMT+0100 (CET)","2021","2","17","13","50","7","ms72","21","female","right","50","20","10","8","7","","","","","test","fear","fear","f","true"
"null","<div style=""font-size:60px;"">+</div>","null","html-keyboard-response","41","269880","0.0-9.0-0.16","9epbp6","Wed Feb 17 2021 13:50:07 GMT+0100 (CET)","2021","2","17","13","50","7","ms72","21","female","right","50","20","10","8","7","","","","","fixation","","","",""
"467.0000000000582","img/image_stim_f.png","70","image-keyboard-response","42","270349","0.0-9.0-1.16","9epbp6","Wed Feb 17 2021 13:50:07 GMT+0100 (CET)","2021","2","17","13","50","7","ms72","21","female","right","50","20","10","8","7","","","","","test","fear","fear","f","true"
"null","<div style=""font-size:60px;"">+</div>","null","html-keyboard-response","43","271602","0.0-9.0-0.17","9epbp6","Wed Feb 17 2021 13:50:07 GMT+0100 (CET)","2021","2","17","13","50","7","ms72","21","female","right","50","20","10","8","7","","","","","fixation","","","",""
"591","img/image_stim_f_stroop.png","70","image-keyboard-response","44","272194","0.0-9.0-1.17","9epbp6","Wed Feb 17 2021 13:50:07 GMT+0100 (CET)","2021","2","17","13","50","7","ms72","21","female","right","50","20","10","8","7","","","","","test","fear","happy","f","true"
"null","<div style=""font-size:60px;"">+</div>","null","html-keyboard-response","45","273446","0.0-9.0-0.18","9epbp6","Wed Feb 17 2021 13:50:07 GMT+0100 (CET)","2021","2","17","13","50","7","ms72","21","female","right","50","20","10","8","7","","","","","fixation","","","",""
"487","img/image_stim_h.png","72","image-keyboard-response","46","273935","0.0-9.0-1.18","9epbp6","Wed Feb 17 2021 13:50:07 GMT+0100 (CET)","2021","2","17","13","50","7","ms72","21","female","right","50","20","10","8","7","","","","","test","happy","happy","h","true"
"null","<div style=""font-size:60px;"">+</div>","null","html-keyboard-response","47","274688","0.0-9.0-0.19","9epbp6","Wed Feb 17 2021 13:50:07 GMT+0100 (CET)","2021","2","17","13","50","7","ms72","21","female","right","50","20","10","8","7","","","","","fixation","","","",""
"619.0000000000582","img/image_stim_h_stroop.png","72","image-keyboard-response","48","275308","0.0-9.0-1.19","9epbp6","Wed Feb 17 2021 13:50:07 GMT+0100 (CET)","2021","2","17","13","50","7","ms72","21","female","right","50","20","10","8","7","","","","","test","happy","fear","h","true"
"null","<div style=""font-size:60px;"">+</div>","null","html-keyboard-response","49","277061","0.0-9.0-0.20","9epbp6","Wed Feb 17 2021 13:50:07 GMT+0100 (CET)","2021","2","17","13","50","7","ms72","21","female","right","50","20","10","8","7","","","","","fixation","","","",""
"495","img/image_stim_f.png","70","image-keyboard-response","50","277557","0.0-9.0-1.20","9epbp6","Wed Feb 17 2021 13:50:07 GMT+0100 (CET)","2021","2","17","13","50","7","ms72","21","female","right","50","20","10","8","7","","","","","test","fear","fear","f","true"
"null","<div style=""font-size:60px;"">+</div>","null","html-keyboard-response","51","278309","0.0-9.0-0.21","9epbp6","Wed Feb 17 2021 13:50:07 GMT+0100 (CET)","2021","2","17","13","50","7","ms72","21","female","right","50","20","10","8","7","","","","","fixation","","","",""
"704","img/image_stim_f_stroop.png","70","image-keyboard-response","52","279015","0.0-9.0-1.21","9epbp6","Wed Feb 17 2021 13:50:07 GMT+0100 (CET)","2021","2","17","13","50","7","ms72","21","female","right","50","20","10","8","7","","","","","test","fear","happy","f","true"
"null","<div style=""font-size:60px;"">+</div>","null","html-keyboard-response","53","279767","0.0-9.0-0.22","9epbp6","Wed Feb 17 2021 13:50:07 GMT+0100 (CET)","2021","2","17","13","50","7","ms72","21","female","right","50","20","10","8","7","","","","","fixation","","","",""
"557","img/image_stim_h_stroop.png","72","image-keyboard-response","54","280326","0.0-9.0-1.22","9epbp6","Wed Feb 17 2021 13:50:07 GMT+0100 (CET)","2021","2","17","13","50","7","ms72","21","female","right","50","20","10","8","7","","","","","test","happy","fear","h","true"
"null","<div style=""font-size:60px;"">+</div>","null","html-keyboard-response","55","281329","0.0-9.0-0.23","9epbp6","Wed Feb 17 2021 13:50:07 GMT+0100 (CET)","2021","2","17","13","50","7","ms72","21","female","right","50","20","10","8","7","","","","","fixation","","","",""
"894.0000000000582","img/image_stim_h.png","72","image-keyboard-response","56","282224","0.0-9.0-1.23","9epbp6","Wed Feb 17 2021 13:50:07 GMT+0100 (CET)","2021","2","17","13","50","7","ms72","21","female","right","50","20","10","8","7","","","","","test","happy","happy","h","true"
"null","<div style=""font-size:60px;"">+</div>","null","html-keyboard-response","57","282477","0.0-9.0-0.24","9epbp6","Wed Feb 17 2021 13:50:07 GMT+0100 (CET)","2021","2","17","13","50","7","ms72","21","female","right","50","20","10","8","7","","","","","fixation","","","",""
"786","img/image_stim_h.png","72","image-keyboard-response","58","283266","0.0-9.0-1.24","9epbp6","Wed Feb 17 2021 13:50:07 GMT+0100 (CET)","2021","2","17","13","50","7","ms72","21","female","right","50","20","10","8","7","","","","","test","happy","happy","h","true"
"null","<div style=""font-size:60px;"">+</div>","null","html-keyboard-response","59","284518","0.0-9.0-0.25","9epbp6","Wed Feb 17 2021 13:50:07 GMT+0100 (CET)","2021","2","17","13","50","7","ms72","21","female","right","50","20","10","8","7","","","","","fixation","","","",""
"513","img/image_stim_f_stroop.png","70","image-keyboard-response","60","285034","0.0-9.0-1.25","9epbp6","Wed Feb 17 2021 13:50:07 GMT+0100 (CET)","2021","2","17","13","50","7","ms72","21","female","right","50","20","10","8","7","","","","","test","fear","happy","f","true"
"null","<div style=""font-size:60px;"">+</div>","null","html-keyboard-response","61","287037","0.0-9.0-0.26","9epbp6","Wed Feb 17 2021 13:50:07 GMT+0100 (CET)","2021","2","17","13","50","7","ms72","21","female","right","50","20","10","8","7","","","","","fixation","","","",""
"395.0000000000582","img/image_stim_h_stroop.png","72","image-keyboard-response","62","287433","0.0-9.0-1.26","9epbp6","Wed Feb 17 2021 13:50:07 GMT+0100 (CET)","2021","2","17","13","50","7","ms72","21","female","right","50","20","10","8","7","","","","","test","happy","fear","h","true"
"null","<div style=""font-size:60px;"">+</div>","null","html-keyboard-response","63","288686","0.0-9.0-0.27","9epbp6","Wed Feb 17 2021 13:50:07 GMT+0100 (CET)","2021","2","17","13","50","7","ms72","21","female","right","50","20","10","8","7","","","","","fixation","","","",""
"332","img/image_stim_f.png","70","image-keyboard-response","64","289019","0.0-9.0-1.27","9epbp6","Wed Feb 17 2021 13:50:07 GMT+0100 (CET)","2021","2","17","13","50","7","ms72","21","female","right","50","20","10","8","7","","","","","test","fear","fear","f","true"
"null","<div style=""font-size:60px;"">+</div>","null","html-keyboard-response","65","291023","0.0-9.0-0.28","9epbp6","Wed Feb 17 2021 13:50:07 GMT+0100 (CET)","2021","2","17","13","50","7","ms72","21","female","right","50","20","10","8","7","","","","","fixation","","","",""
"594","img/image_stim_f_stroop.png","70","image-keyboard-response","66","291618","0.0-9.0-1.28","9epbp6","Wed Feb 17 2021 13:50:07 GMT+0100 (CET)","2021","2","17","13","50","7","ms72","21","female","right","50","20","10","8","7","","","","","test","fear","happy","f","true"
"null","<div style=""font-size:60px;"">+</div>","null","html-keyboard-response","67","292871","0.0-9.0-0.29","9epbp6","Wed Feb 17 2021 13:50:07 GMT+0100 (CET)","2021","2","17","13","50","7","ms72","21","female","right","50","20","10","8","7","","","","","fixation","","","",""
"506","img/image_stim_h.png","72","image-keyboard-response","68","293378","0.0-9.0-1.29","9epbp6","Wed Feb 17 2021 13:50:07 GMT+0100 (CET)","2021","2","17","13","50","7","ms72","21","female","right","50","20","10","8","7","","","","","test","happy","happy","h","true"
"null","<div style=""font-size:60px;"">+</div>","null","html-keyboard-response","69","294382","0.0-9.0-0.30","9epbp6","Wed Feb 17 2021 13:50:07 GMT+0100 (CET)","2021","2","17","13","50","7","ms72","21","female","right","50","20","10","8","7","","","","","fixation","","","",""
"565","img/image_stim_f.png","70","image-keyboard-response","70","294949","0.0-9.0-1.30","9epbp6","Wed Feb 17 2021 13:50:07 GMT+0100 (CET)","2021","2","17","13","50","7","ms72","21","female","right","50","20","10","8","7","","","","","test","fear","fear","f","true"
"null","<div style=""font-size:60px;"">+</div>","null","html-keyboard-response","71","296452","0.0-9.0-0.31","9epbp6","Wed Feb 17 2021 13:50:07 GMT+0100 (CET)","2021","2","17","13","50","7","ms72","21","female","right","50","20","10","8","7","","","","","fixation","","","",""
"457","img/image_stim_h_stroop.png","72","image-keyboard-response","72","296910","0.0-9.0-1.31","9epbp6","Wed Feb 17 2021 13:50:07 GMT+0100 (CET)","2021","2","17","13","50","7","ms72","21","female","right","50","20","10","8","7","","","","","test","happy","fear","h","true"
"null","<div style=""font-size:60px;"">+</div>","null","html-keyboard-response","73","298663","0.0-9.0-0.32","9epbp6","Wed Feb 17 2021 13:50:07 GMT+0100 (CET)","2021","2","17","13","50","7","ms72","21","female","right","50","20","10","8","7","","","","","fixation","","","",""
"405.0000000000582","img/image_stim_f.png","70","image-keyboard-response","74","299070","0.0-9.0-1.32","9epbp6","Wed Feb 17 2021 13:50:07 GMT+0100 (CET)","2021","2","17","13","50","7","ms72","21","female","right","50","20","10","8","7","","","","","test","fear","fear","f","true"
"null","<div style=""font-size:60px;"">+</div>","null","html-keyboard-response","75","299574","0.0-9.0-0.33","9epbp6","Wed Feb 17 2021 13:50:07 GMT+0100 (CET)","2021","2","17","13","50","7","ms72","21","female","right","50","20","10","8","7","","","","","fixation","","","",""
"529.9999999999418","img/image_stim_h_stroop.png","72","image-keyboard-response","76","300105","0.0-9.0-1.33","9epbp6","Wed Feb 17 2021 13:50:07 GMT+0100 (CET)","2021","2","17","13","50","7","ms72","21","female","right","50","20","10","8","7","","","","","test","happy","fear","h","true"
"null","<div style=""font-size:60px;"">+</div>","null","html-keyboard-response","77","301859","0.0-9.0-0.34","9epbp6","Wed Feb 17 2021 13:50:07 GMT+0100 (CET)","2021","2","17","13","50","7","ms72","21","female","right","50","20","10","8","7","","","","","fixation","","","",""
"448.0000000000582","img/image_stim_f_stroop.png","70","image-keyboard-response","78","302308","0.0-9.0-1.34","9epbp6","Wed Feb 17 2021 13:50:07 GMT+0100 (CET)","2021","2","17","13","50","7","ms72","21","female","right","50","20","10","8","7","","","","","test","fear","happy","f","true"
"null","<div style=""font-size:60px;"">+</div>","null","html-keyboard-response","79","303312","0.0-9.0-0.35","9epbp6","Wed Feb 17 2021 13:50:07 GMT+0100 (CET)","2021","2","17","13","50","7","ms72","21","female","right","50","20","10","8","7","","","","","fixation","","","",""
"573","img/image_stim_h.png","72","image-keyboard-response","80","303887","0.0-9.0-1.35","9epbp6","Wed Feb 17 2021 13:50:07 GMT+0100 (CET)","2021","2","17","13","50","7","ms72","21","female","right","50","20","10","8","7","","","","","test","happy","happy","h","true"
