"rt","stimulus","key_press","trial_type","trial_index","time_elapsed","internal_node_id","exp_id","Time","year","month","date","hour","minute","seconds","id","age","Gender","Handedness","mood","fresh","hunger","H_since_Sleep","H_since_Eat","responses","question_order","slider_start","response","test_part","face","word","correct_response","correct"
"729.1649999679066","<p>Welcome to this experiment on daily rhythms and cognition.</p><p>First you will be asked some questions about yourself.</p><p>Then a short experiment will measure your response time.</p><p>Take the test at different times of the day/night.</p><p>The test is anonymous, but comparing your data across time is important.</p><p>Therefore, please make up and remember a personal ID (two letters+ two numbers).</p><p>Use this ID whenever taking the test.</p><p><strong>Press any key to begin.</strong></p>","32","html-keyboard-response","0","731","0.0-0.0","2jq0jw","Fri Feb 12 2021 02:13:25 GMT+0100 (Centraleuropæisk normaltid)","2021","2","12","2","13","25","br00","21","female","right","91","28","57","15","7","","","","","","","","",""
"2968.9549999893643","","","survey-text","1","3705","0.0-1.0","2jq0jw","Fri Feb 12 2021 02:13:25 GMT+0100 (Centraleuropæisk normaltid)","2021","2","12","2","13","25","br00","21","female","right","91","28","57","15","7","{""Q0"":""br00""}","","","","","","","",""
"1462.375000002794","","","survey-text","2","5171","0.0-2.0","2jq0jw","Fri Feb 12 2021 02:13:25 GMT+0100 (Centraleuropæisk normaltid)","2021","2","12","2","13","25","br00","21","female","right","91","28","57","15","7","{""Q0"":""21""}","","","","","","","",""
"3616.24500004109","","","survey-multi-select","3","8794","0.0-3.0","2jq0jw","Fri Feb 12 2021 02:13:25 GMT+0100 (Centraleuropæisk normaltid)","2021","2","12","2","13","25","br00","21","female","right","91","28","57","15","7","{""Gender"":[""female""],""Hand"":[""right""]}","[0,1]","","","","","","",""
"3553.2949999906123","<p>How Sad/Angry or Happy are you right now?</p>","","html-slider-response","4","12349","0.0-4.0","2jq0jw","Fri Feb 12 2021 02:13:25 GMT+0100 (Centraleuropæisk normaltid)","2021","2","12","2","13","25","br00","21","female","right","91","28","57","15","7","","","50","91","","","","",""
"7071.539999975357","<p>How Tired/Sleepy/Distracted or Fresh/Awake/Alert are you right now?</p>","","html-slider-response","5","19421","0.0-5.0","2jq0jw","Fri Feb 12 2021 02:13:25 GMT+0100 (Centraleuropæisk normaltid)","2021","2","12","2","13","25","br00","21","female","right","91","28","57","15","7","","","50","28","","","","",""
"6497.21000000136","<p>How Hungry or Satiated are you right now?</p>","","html-slider-response","6","25919","0.0-6.0","2jq0jw","Fri Feb 12 2021 02:13:25 GMT+0100 (Centraleuropæisk normaltid)","2021","2","12","2","13","25","br00","21","female","right","91","28","57","15","7","","","50","57","","","","",""
"75665.83499999251","","","survey-multi-select","7","101599","0.0-7.0","2jq0jw","Fri Feb 12 2021 02:13:25 GMT+0100 (Centraleuropæisk normaltid)","2021","2","12","2","13","25","br00","21","female","right","91","28","57","15","7","{""Sleep"":[""15""],""Eat"":[""7""]}","[0,1]","","","","","","",""
"2683.1650000531226","<p>In this experiment, a face and a word will appear in the center of the screen.</p><p>If the face is <strong>happy</strong>, press the letter <strong>H</strong> with <strong>right</strong> index finger.</p><p>If the face is <strong>fearful</strong>, press the letter <strong>F</strong> with <strong>left</strong> index finger.</p><p><strong>Ignore the written words</strong>. Respond as fast as possible while being correct. </p><div style='width: 900px;'><div style='float: left;'><img src='img/stimuli_stroop_happy.png'></img><p class='small'><strong>Press the H key for happy faces</strong></p></div><div class='float: right;'><img src='img/stimuli_stroop_fear.png'></img><p class='small'><strong>Press the F key for faces with fear</strong></p></div></div><p>If the screen turns blank, press <strong>SPACE</strong></p><p><strong>Press any key to begin.</strong></p>","32","html-keyboard-response","8","104284","0.0-8.0","2jq0jw","Fri Feb 12 2021 02:13:25 GMT+0100 (Centraleuropæisk normaltid)","2021","2","12","2","13","25","br00","21","female","right","91","28","57","15","7","","","","","","","","",""
"null","<div style=""font-size:60px;"">+</div>","null","html-keyboard-response","9","107043","0.0-9.0-0.0","2jq0jw","Fri Feb 12 2021 02:13:25 GMT+0100 (Centraleuropæisk normaltid)","2021","2","12","2","13","25","br00","21","female","right","91","28","57","15","7","","","","","fixation","","","",""
"754.9600000493228","img/image_stim_f_stroop.png","72","image-keyboard-response","10","107803","0.0-9.0-1.0","2jq0jw","Fri Feb 12 2021 02:13:25 GMT+0100 (Centraleuropæisk normaltid)","2021","2","12","2","13","25","br00","21","female","right","91","28","57","15","7","","","","","test","fear","happy","f","false"
"null","<div style=""font-size:60px;"">+</div>","null","html-keyboard-response","11","109307","0.0-9.0-0.1","2jq0jw","Fri Feb 12 2021 02:13:25 GMT+0100 (Centraleuropæisk normaltid)","2021","2","12","2","13","25","br00","21","female","right","91","28","57","15","7","","","","","fixation","","","",""
"688.2149999728426","img/image_stim_h_stroop.png","72","image-keyboard-response","12","109998","0.0-9.0-1.1","2jq0jw","Fri Feb 12 2021 02:13:25 GMT+0100 (Centraleuropæisk normaltid)","2021","2","12","2","13","25","br00","21","female","right","91","28","57","15","7","","","","","test","happy","fear","h","true"
"null","<div style=""font-size:60px;"">+</div>","null","html-keyboard-response","13","111255","0.0-9.0-0.2","2jq0jw","Fri Feb 12 2021 02:13:25 GMT+0100 (Centraleuropæisk normaltid)","2021","2","12","2","13","25","br00","21","female","right","91","28","57","15","7","","","","","fixation","","","",""
"465.1249999878928","img/image_stim_h.png","72","image-keyboard-response","14","111723","0.0-9.0-1.2","2jq0jw","Fri Feb 12 2021 02:13:25 GMT+0100 (Centraleuropæisk normaltid)","2021","2","12","2","13","25","br00","21","female","right","91","28","57","15","7","","","","","test","happy","happy","h","true"
"null","<div style=""font-size:60px;"">+</div>","null","html-keyboard-response","15","112982","0.0-9.0-0.3","2jq0jw","Fri Feb 12 2021 02:13:25 GMT+0100 (Centraleuropæisk normaltid)","2021","2","12","2","13","25","br00","21","female","right","91","28","57","15","7","","","","","fixation","","","",""
"583.6300000082701","img/image_stim_f.png","70","image-keyboard-response","16","113568","0.0-9.0-1.3","2jq0jw","Fri Feb 12 2021 02:13:25 GMT+0100 (Centraleuropæisk normaltid)","2021","2","12","2","13","25","br00","21","female","right","91","28","57","15","7","","","","","test","fear","fear","f","true"
"null","<div style=""font-size:60px;"">+</div>","null","html-keyboard-response","17","114322","0.0-9.0-0.4","2jq0jw","Fri Feb 12 2021 02:13:25 GMT+0100 (Centraleuropæisk normaltid)","2021","2","12","2","13","25","br00","21","female","right","91","28","57","15","7","","","","","fixation","","","",""
"467.2900000005029","img/image_stim_h_stroop.png","72","image-keyboard-response","18","114792","0.0-9.0-1.4","2jq0jw","Fri Feb 12 2021 02:13:25 GMT+0100 (Centraleuropæisk normaltid)","2021","2","12","2","13","25","br00","21","female","right","91","28","57","15","7","","","","","test","happy","fear","h","true"
"null","<div style=""font-size:60px;"">+</div>","null","html-keyboard-response","19","115800","0.0-9.0-0.5","2jq0jw","Fri Feb 12 2021 02:13:25 GMT+0100 (Centraleuropæisk normaltid)","2021","2","12","2","13","25","br00","21","female","right","91","28","57","15","7","","","","","fixation","","","",""
"587.6649999991059","img/image_stim_f.png","70","image-keyboard-response","20","116391","0.0-9.0-1.5","2jq0jw","Fri Feb 12 2021 02:13:25 GMT+0100 (Centraleuropæisk normaltid)","2021","2","12","2","13","25","br00","21","female","right","91","28","57","15","7","","","","","test","fear","fear","f","true"
"null","<div style=""font-size:60px;"">+</div>","null","html-keyboard-response","21","117650","0.0-9.0-0.6","2jq0jw","Fri Feb 12 2021 02:13:25 GMT+0100 (Centraleuropæisk normaltid)","2021","2","12","2","13","25","br00","21","female","right","91","28","57","15","7","","","","","fixation","","","",""
"461.79500001017004","img/image_stim_h.png","72","image-keyboard-response","22","118114","0.0-9.0-1.6","2jq0jw","Fri Feb 12 2021 02:13:25 GMT+0100 (Centraleuropæisk normaltid)","2021","2","12","2","13","25","br00","21","female","right","91","28","57","15","7","","","","","test","happy","happy","h","true"
"null","<div style=""font-size:60px;"">+</div>","null","html-keyboard-response","23","120125","0.0-9.0-0.7","2jq0jw","Fri Feb 12 2021 02:13:25 GMT+0100 (Centraleuropæisk normaltid)","2021","2","12","2","13","25","br00","21","female","right","91","28","57","15","7","","","","","fixation","","","",""
"611.2499999580905","img/image_stim_f_stroop.png","70","image-keyboard-response","24","120739","0.0-9.0-1.7","2jq0jw","Fri Feb 12 2021 02:13:25 GMT+0100 (Centraleuropæisk normaltid)","2021","2","12","2","13","25","br00","21","female","right","91","28","57","15","7","","","","","test","fear","happy","f","true"
"null","<div style=""font-size:60px;"">+</div>","null","html-keyboard-response","25","121743","0.0-9.0-0.8","2jq0jw","Fri Feb 12 2021 02:13:25 GMT+0100 (Centraleuropæisk normaltid)","2021","2","12","2","13","25","br00","21","female","right","91","28","57","15","7","","","","","fixation","","","",""
"475.0800000037998","img/image_stim_h_stroop.png","72","image-keyboard-response","26","122221","0.0-9.0-1.8","2jq0jw","Fri Feb 12 2021 02:13:25 GMT+0100 (Centraleuropæisk normaltid)","2021","2","12","2","13","25","br00","21","female","right","91","28","57","15","7","","","","","test","happy","fear","h","true"
"null","<div style=""font-size:60px;"">+</div>","null","html-keyboard-response","27","122725","0.0-9.0-0.9","2jq0jw","Fri Feb 12 2021 02:13:25 GMT+0100 (Centraleuropæisk normaltid)","2021","2","12","2","13","25","br00","21","female","right","91","28","57","15","7","","","","","fixation","","","",""
"560.0850000046194","img/image_stim_h.png","72","image-keyboard-response","28","123288","0.0-9.0-1.9","2jq0jw","Fri Feb 12 2021 02:13:25 GMT+0100 (Centraleuropæisk normaltid)","2021","2","12","2","13","25","br00","21","female","right","91","28","57","15","7","","","","","test","happy","happy","h","true"
"null","<div style=""font-size:60px;"">+</div>","null","html-keyboard-response","29","123547","0.0-9.0-0.10","2jq0jw","Fri Feb 12 2021 02:13:25 GMT+0100 (Centraleuropæisk normaltid)","2021","2","12","2","13","25","br00","21","female","right","91","28","57","15","7","","","","","fixation","","","",""
"529.1649999562651","img/image_stim_f_stroop.png","70","image-keyboard-response","30","124079","0.0-9.0-1.10","2jq0jw","Fri Feb 12 2021 02:13:25 GMT+0100 (Centraleuropæisk normaltid)","2021","2","12","2","13","25","br00","21","female","right","91","28","57","15","7","","","","","test","fear","happy","f","true"
"null","<div style=""font-size:60px;"">+</div>","null","html-keyboard-response","31","126089","0.0-9.0-0.11","2jq0jw","Fri Feb 12 2021 02:13:25 GMT+0100 (Centraleuropæisk normaltid)","2021","2","12","2","13","25","br00","21","female","right","91","28","57","15","7","","","","","fixation","","","",""
"672.4999999860302","img/image_stim_f.png","70","image-keyboard-response","32","126764","0.0-9.0-1.11","2jq0jw","Fri Feb 12 2021 02:13:25 GMT+0100 (Centraleuropæisk normaltid)","2021","2","12","2","13","25","br00","21","female","right","91","28","57","15","7","","","","","test","fear","fear","f","true"
"null","<div style=""font-size:60px;"">+</div>","null","html-keyboard-response","33","127023","0.0-9.0-0.12","2jq0jw","Fri Feb 12 2021 02:13:25 GMT+0100 (Centraleuropæisk normaltid)","2021","2","12","2","13","25","br00","21","female","right","91","28","57","15","7","","","","","fixation","","","",""
"567.7500000456348","img/image_stim_h_stroop.png","72","image-keyboard-response","34","127593","0.0-9.0-1.12","2jq0jw","Fri Feb 12 2021 02:13:25 GMT+0100 (Centraleuropæisk normaltid)","2021","2","12","2","13","25","br00","21","female","right","91","28","57","15","7","","","","","test","happy","fear","h","true"
"null","<div style=""font-size:60px;"">+</div>","null","html-keyboard-response","35","128852","0.0-9.0-0.13","2jq0jw","Fri Feb 12 2021 02:13:25 GMT+0100 (Centraleuropæisk normaltid)","2021","2","12","2","13","25","br00","21","female","right","91","28","57","15","7","","","","","fixation","","","",""
"609.2899999930523","img/image_stim_h.png","72","image-keyboard-response","36","129464","0.0-9.0-1.13","2jq0jw","Fri Feb 12 2021 02:13:25 GMT+0100 (Centraleuropæisk normaltid)","2021","2","12","2","13","25","br00","21","female","right","91","28","57","15","7","","","","","test","happy","happy","h","true"
"null","<div style=""font-size:60px;"">+</div>","null","html-keyboard-response","37","130222","0.0-9.0-0.14","2jq0jw","Fri Feb 12 2021 02:13:25 GMT+0100 (Centraleuropæisk normaltid)","2021","2","12","2","13","25","br00","21","female","right","91","28","57","15","7","","","","","fixation","","","",""
"572.455000015907","img/image_stim_f_stroop.png","70","image-keyboard-response","38","130797","0.0-9.0-1.14","2jq0jw","Fri Feb 12 2021 02:13:25 GMT+0100 (Centraleuropæisk normaltid)","2021","2","12","2","13","25","br00","21","female","right","91","28","57","15","7","","","","","test","fear","happy","f","true"
"null","<div style=""font-size:60px;"">+</div>","null","html-keyboard-response","39","132807","0.0-9.0-0.15","2jq0jw","Fri Feb 12 2021 02:13:25 GMT+0100 (Centraleuropæisk normaltid)","2021","2","12","2","13","25","br00","21","female","right","91","28","57","15","7","","","","","fixation","","","",""
"692.8800000459887","img/image_stim_f.png","70","image-keyboard-response","40","133503","0.0-9.0-1.15","2jq0jw","Fri Feb 12 2021 02:13:25 GMT+0100 (Centraleuropæisk normaltid)","2021","2","12","2","13","25","br00","21","female","right","91","28","57","15","7","","","","","test","fear","fear","f","true"
"null","<div style=""font-size:60px;"">+</div>","null","html-keyboard-response","41","135261","0.0-9.0-0.16","2jq0jw","Fri Feb 12 2021 02:13:25 GMT+0100 (Centraleuropæisk normaltid)","2021","2","12","2","13","25","br00","21","female","right","91","28","57","15","7","","","","","fixation","","","",""
"512.7099999808706","img/image_stim_f.png","70","image-keyboard-response","42","135776","0.0-9.0-1.16","2jq0jw","Fri Feb 12 2021 02:13:25 GMT+0100 (Centraleuropæisk normaltid)","2021","2","12","2","13","25","br00","21","female","right","91","28","57","15","7","","","","","test","fear","fear","f","true"
"null","<div style=""font-size:60px;"">+</div>","null","html-keyboard-response","43","137783","0.0-9.0-0.17","2jq0jw","Fri Feb 12 2021 02:13:25 GMT+0100 (Centraleuropæisk normaltid)","2021","2","12","2","13","25","br00","21","female","right","91","28","57","15","7","","","","","fixation","","","",""
"854.0399999474175","img/image_stim_f_stroop.png","70","image-keyboard-response","44","138640","0.0-9.0-1.17","2jq0jw","Fri Feb 12 2021 02:13:25 GMT+0100 (Centraleuropæisk normaltid)","2021","2","12","2","13","25","br00","21","female","right","91","28","57","15","7","","","","","test","fear","happy","f","true"
"null","<div style=""font-size:60px;"">+</div>","null","html-keyboard-response","45","140400","0.0-9.0-0.18","2jq0jw","Fri Feb 12 2021 02:13:25 GMT+0100 (Centraleuropæisk normaltid)","2021","2","12","2","13","25","br00","21","female","right","91","28","57","15","7","","","","","fixation","","","",""
"575.0799999805167","img/image_stim_h.png","72","image-keyboard-response","46","140978","0.0-9.0-1.18","2jq0jw","Fri Feb 12 2021 02:13:25 GMT+0100 (Centraleuropæisk normaltid)","2021","2","12","2","13","25","br00","21","female","right","91","28","57","15","7","","","","","test","happy","happy","h","true"
"null","<div style=""font-size:60px;"">+</div>","null","html-keyboard-response","47","142737","0.0-9.0-0.19","2jq0jw","Fri Feb 12 2021 02:13:25 GMT+0100 (Centraleuropæisk normaltid)","2021","2","12","2","13","25","br00","21","female","right","91","28","57","15","7","","","","","fixation","","","",""
"577.5400000275113","img/image_stim_h_stroop.png","72","image-keyboard-response","48","143317","0.0-9.0-1.19","2jq0jw","Fri Feb 12 2021 02:13:25 GMT+0100 (Centraleuropæisk normaltid)","2021","2","12","2","13","25","br00","21","female","right","91","28","57","15","7","","","","","test","happy","fear","h","true"
"null","<div style=""font-size:60px;"">+</div>","null","html-keyboard-response","49","144822","0.0-9.0-0.20","2jq0jw","Fri Feb 12 2021 02:13:25 GMT+0100 (Centraleuropæisk normaltid)","2021","2","12","2","13","25","br00","21","female","right","91","28","57","15","7","","","","","fixation","","","",""
"398.5850000171922","img/image_stim_h_stroop.png","72","image-keyboard-response","50","145224","0.0-9.0-1.20","2jq0jw","Fri Feb 12 2021 02:13:25 GMT+0100 (Centraleuropæisk normaltid)","2021","2","12","2","13","25","br00","21","female","right","91","28","57","15","7","","","","","test","happy","fear","h","true"
"null","<div style=""font-size:60px;"">+</div>","null","html-keyboard-response","51","147234","0.0-9.0-0.21","2jq0jw","Fri Feb 12 2021 02:13:25 GMT+0100 (Centraleuropæisk normaltid)","2021","2","12","2","13","25","br00","21","female","right","91","28","57","15","7","","","","","fixation","","","",""
"466.2049999460578","img/image_stim_f.png","70","image-keyboard-response","52","147703","0.0-9.0-1.21","2jq0jw","Fri Feb 12 2021 02:13:25 GMT+0100 (Centraleuropæisk normaltid)","2021","2","12","2","13","25","br00","21","female","right","91","28","57","15","7","","","","","test","fear","fear","f","true"
"null","<div style=""font-size:60px;"">+</div>","null","html-keyboard-response","53","147963","0.0-9.0-0.22","2jq0jw","Fri Feb 12 2021 02:13:25 GMT+0100 (Centraleuropæisk normaltid)","2021","2","12","2","13","25","br00","21","female","right","91","28","57","15","7","","","","","fixation","","","",""
"426.0399999911897","img/image_stim_f_stroop.png","70","image-keyboard-response","54","148392","0.0-9.0-1.22","2jq0jw","Fri Feb 12 2021 02:13:25 GMT+0100 (Centraleuropæisk normaltid)","2021","2","12","2","13","25","br00","21","female","right","91","28","57","15","7","","","","","test","fear","happy","f","true"
"null","<div style=""font-size:60px;"">+</div>","null","html-keyboard-response","55","148897","0.0-9.0-0.23","2jq0jw","Fri Feb 12 2021 02:13:25 GMT+0100 (Centraleuropæisk normaltid)","2021","2","12","2","13","25","br00","21","female","right","91","28","57","15","7","","","","","fixation","","","",""
"544.3349999841303","img/image_stim_h.png","72","image-keyboard-response","56","149443","0.0-9.0-1.23","2jq0jw","Fri Feb 12 2021 02:13:25 GMT+0100 (Centraleuropæisk normaltid)","2021","2","12","2","13","25","br00","21","female","right","91","28","57","15","7","","","","","test","happy","happy","h","true"
"null","<div style=""font-size:60px;"">+</div>","null","html-keyboard-response","57","149949","0.0-9.0-0.24","2jq0jw","Fri Feb 12 2021 02:13:25 GMT+0100 (Centraleuropæisk normaltid)","2021","2","12","2","13","25","br00","21","female","right","91","28","57","15","7","","","","","fixation","","","",""
"462.79499999945983","img/image_stim_h_stroop.png","72","image-keyboard-response","58","150414","0.0-9.0-1.24","2jq0jw","Fri Feb 12 2021 02:13:25 GMT+0100 (Centraleuropæisk normaltid)","2021","2","12","2","13","25","br00","21","female","right","91","28","57","15","7","","","","","test","happy","fear","h","true"
"null","<div style=""font-size:60px;"">+</div>","null","html-keyboard-response","59","151674","0.0-9.0-0.25","2jq0jw","Fri Feb 12 2021 02:13:25 GMT+0100 (Centraleuropæisk normaltid)","2021","2","12","2","13","25","br00","21","female","right","91","28","57","15","7","","","","","fixation","","","",""
"537.0800000382587","img/image_stim_f.png","70","image-keyboard-response","60","152214","0.0-9.0-1.25","2jq0jw","Fri Feb 12 2021 02:13:25 GMT+0100 (Centraleuropæisk normaltid)","2021","2","12","2","13","25","br00","21","female","right","91","28","57","15","7","","","","","test","fear","fear","f","true"
"null","<div style=""font-size:60px;"">+</div>","null","html-keyboard-response","61","152474","0.0-9.0-0.26","2jq0jw","Fri Feb 12 2021 02:13:25 GMT+0100 (Centraleuropæisk normaltid)","2021","2","12","2","13","25","br00","21","female","right","91","28","57","15","7","","","","","fixation","","","",""
"390.71000000694767","img/image_stim_h.png","70","image-keyboard-response","62","152868","0.0-9.0-1.26","2jq0jw","Fri Feb 12 2021 02:13:25 GMT+0100 (Centraleuropæisk normaltid)","2021","2","12","2","13","25","br00","21","female","right","91","28","57","15","7","","","","","test","happy","happy","h","false"
"null","<div style=""font-size:60px;"">+</div>","null","html-keyboard-response","63","153875","0.0-9.0-0.27","2jq0jw","Fri Feb 12 2021 02:13:25 GMT+0100 (Centraleuropæisk normaltid)","2021","2","12","2","13","25","br00","21","female","right","91","28","57","15","7","","","","","fixation","","","",""
"734.4150000135414","img/image_stim_f_stroop.png","70","image-keyboard-response","64","154612","0.0-9.0-1.27","2jq0jw","Fri Feb 12 2021 02:13:25 GMT+0100 (Centraleuropæisk normaltid)","2021","2","12","2","13","25","br00","21","female","right","91","28","57","15","7","","","","","test","fear","happy","f","true"
"null","<div style=""font-size:60px;"">+</div>","null","html-keyboard-response","65","155623","0.0-9.0-0.28","2jq0jw","Fri Feb 12 2021 02:13:25 GMT+0100 (Centraleuropæisk normaltid)","2021","2","12","2","13","25","br00","21","female","right","91","28","57","15","7","","","","","fixation","","","",""
"476.3350000139326","img/image_stim_f_stroop.png","72","image-keyboard-response","66","156104","0.0-9.0-1.28","2jq0jw","Fri Feb 12 2021 02:13:25 GMT+0100 (Centraleuropæisk normaltid)","2021","2","12","2","13","25","br00","21","female","right","91","28","57","15","7","","","","","test","fear","happy","f","false"
"null","<div style=""font-size:60px;"">+</div>","null","html-keyboard-response","67","157113","0.0-9.0-0.29","2jq0jw","Fri Feb 12 2021 02:13:25 GMT+0100 (Centraleuropæisk normaltid)","2021","2","12","2","13","25","br00","21","female","right","91","28","57","15","7","","","","","fixation","","","",""
"603.3349999925122","img/image_stim_f.png","70","image-keyboard-response","68","157720","0.0-9.0-1.29","2jq0jw","Fri Feb 12 2021 02:13:25 GMT+0100 (Centraleuropæisk normaltid)","2021","2","12","2","13","25","br00","21","female","right","91","28","57","15","7","","","","","test","fear","fear","f","true"
"null","<div style=""font-size:60px;"">+</div>","null","html-keyboard-response","69","159732","0.0-9.0-0.30","2jq0jw","Fri Feb 12 2021 02:13:25 GMT+0100 (Centraleuropæisk normaltid)","2021","2","12","2","13","25","br00","21","female","right","91","28","57","15","7","","","","","fixation","","","",""
"546.2900000275113","img/image_stim_h_stroop.png","72","image-keyboard-response","70","160281","0.0-9.0-1.30","2jq0jw","Fri Feb 12 2021 02:13:25 GMT+0100 (Centraleuropæisk normaltid)","2021","2","12","2","13","25","br00","21","female","right","91","28","57","15","7","","","","","test","happy","fear","h","true"
"null","<div style=""font-size:60px;"">+</div>","null","html-keyboard-response","71","161291","0.0-9.0-0.31","2jq0jw","Fri Feb 12 2021 02:13:25 GMT+0100 (Centraleuropæisk normaltid)","2021","2","12","2","13","25","br00","21","female","right","91","28","57","15","7","","","","","fixation","","","",""
"562.3750000377186","img/image_stim_h.png","72","image-keyboard-response","72","161856","0.0-9.0-1.31","2jq0jw","Fri Feb 12 2021 02:13:25 GMT+0100 (Centraleuropæisk normaltid)","2021","2","12","2","13","25","br00","21","female","right","91","28","57","15","7","","","","","test","happy","happy","h","true"
"null","<div style=""font-size:60px;"">+</div>","null","html-keyboard-response","73","162363","0.0-9.0-0.32","2jq0jw","Fri Feb 12 2021 02:13:25 GMT+0100 (Centraleuropæisk normaltid)","2021","2","12","2","13","25","br00","21","female","right","91","28","57","15","7","","","","","fixation","","","",""
"610.164999961853","img/image_stim_h_stroop.png","72","image-keyboard-response","74","162976","0.0-9.0-1.32","2jq0jw","Fri Feb 12 2021 02:13:25 GMT+0100 (Centraleuropæisk normaltid)","2021","2","12","2","13","25","br00","21","female","right","91","28","57","15","7","","","","","test","happy","fear","h","true"
"null","<div style=""font-size:60px;"">+</div>","null","html-keyboard-response","75","163237","0.0-9.0-0.33","2jq0jw","Fri Feb 12 2021 02:13:25 GMT+0100 (Centraleuropæisk normaltid)","2021","2","12","2","13","25","br00","21","female","right","91","28","57","15","7","","","","","fixation","","","",""
"532.0000000065193","img/image_stim_f.png","70","image-keyboard-response","76","163771","0.0-9.0-1.33","2jq0jw","Fri Feb 12 2021 02:13:25 GMT+0100 (Centraleuropæisk normaltid)","2021","2","12","2","13","25","br00","21","female","right","91","28","57","15","7","","","","","test","fear","fear","f","true"
"null","<div style=""font-size:60px;"">+</div>","null","html-keyboard-response","77","165281","0.0-9.0-0.34","2jq0jw","Fri Feb 12 2021 02:13:25 GMT+0100 (Centraleuropæisk normaltid)","2021","2","12","2","13","25","br00","21","female","right","91","28","57","15","7","","","","","fixation","","","",""
"492.2050000168383","img/image_stim_f_stroop.png","72","image-keyboard-response","78","165776","0.0-9.0-1.34","2jq0jw","Fri Feb 12 2021 02:13:25 GMT+0100 (Centraleuropæisk normaltid)","2021","2","12","2","13","25","br00","21","female","right","91","28","57","15","7","","","","","test","fear","happy","f","false"
"null","<div style=""font-size:60px;"">+</div>","null","html-keyboard-response","79","167037","0.0-9.0-0.35","2jq0jw","Fri Feb 12 2021 02:13:25 GMT+0100 (Centraleuropæisk normaltid)","2021","2","12","2","13","25","br00","21","female","right","91","28","57","15","7","","","","","fixation","","","",""
"421.57999996561557","img/image_stim_h.png","70","image-keyboard-response","80","167461","0.0-9.0-1.35","2jq0jw","Fri Feb 12 2021 02:13:25 GMT+0100 (Centraleuropæisk normaltid)","2021","2","12","2","13","25","br00","21","female","right","91","28","57","15","7","","","","","test","happy","happy","h","false"
