"rt","stimulus","key_press","trial_type","trial_index","time_elapsed","internal_node_id","exp_id","Time","year","month","date","hour","minute","seconds","id","age","Gender","Handedness","mood","fresh","hunger","H_since_Sleep","H_since_Eat","responses","question_order","slider_start","response","test_part","face","word","correct_response","correct"
"1593","<p>Welcome to this experiment on daily rhythms and cognition.</p><p>First you will be asked some questions about yourself.</p><p>Then a short experiment will measure your response time.</p><p>Take the test at different times of the day/night.</p><p>The test is anonymous, but comparing your data across time is important.</p><p>Therefore, please make up and remember a personal ID (two letters+ two numbers).</p><p>Use this ID whenever taking the test.</p><p><strong>Press any key to begin.</strong></p>","32","html-keyboard-response","0","1594","0.0-0.0","2wjjpf","Thu Feb 18 2021 14:02:13 GMT+0100 (CET)","2021","2","18","14","2","13","hp99","21","female","right","74","71","9","6","6","","","","","","","","",""
"2205","","","survey-text","1","3819","0.0-1.0","2wjjpf","Thu Feb 18 2021 14:02:13 GMT+0100 (CET)","2021","2","18","14","2","13","hp99","21","female","right","74","71","9","6","6","{""Q0"":""hp99""}","","","","","","","",""
"1161","","","survey-text","2","4986","0.0-2.0","2wjjpf","Thu Feb 18 2021 14:02:13 GMT+0100 (CET)","2021","2","18","14","2","13","hp99","21","female","right","74","71","9","6","6","{""Q0"":""21""}","","","","","","","",""
"2148","","","survey-multi-select","3","7136","0.0-3.0","2wjjpf","Thu Feb 18 2021 14:02:13 GMT+0100 (CET)","2021","2","18","14","2","13","hp99","21","female","right","74","71","9","6","6","{""Gender"":[""female""],""Hand"":[""right""]}","[0,1]","","","","","","",""
"3153.999999999999","<p>How Sad/Angry or Happy are you right now?</p>","","html-slider-response","4","10290","0.0-4.0","2wjjpf","Thu Feb 18 2021 14:02:13 GMT+0100 (CET)","2021","2","18","14","2","13","hp99","21","female","right","74","71","9","6","6","","","50","74","","","","",""
"3087","<p>How Tired/Sleepy/Distracted or Fresh/Awake/Alert are you right now?</p>","","html-slider-response","5","13378","0.0-5.0","2wjjpf","Thu Feb 18 2021 14:02:13 GMT+0100 (CET)","2021","2","18","14","2","13","hp99","21","female","right","74","71","9","6","6","","","50","71","","","","",""
"1764","<p>How Hungry or Satiated are you right now?</p>","","html-slider-response","6","15143","0.0-6.0","2wjjpf","Thu Feb 18 2021 14:02:13 GMT+0100 (CET)","2021","2","18","14","2","13","hp99","21","female","right","74","71","9","6","6","","","50","9","","","","",""
"5983","","","survey-multi-select","7","21141","0.0-7.0","2wjjpf","Thu Feb 18 2021 14:02:13 GMT+0100 (CET)","2021","2","18","14","2","13","hp99","21","female","right","74","71","9","6","6","{""Sleep"":[""6""],""Eat"":[""6""]}","[0,1]","","","","","","",""
"2033","<p>In this experiment, a face and a word will appear in the center of the screen.</p><p>If the face is <strong>happy</strong>, press the letter <strong>H</strong> with <strong>right</strong> index finger.</p><p>If the face is <strong>fearful</strong>, press the letter <strong>F</strong> with <strong>left</strong> index finger.</p><p><strong>Ignore the written words</strong>. Respond as fast as possible while being correct. </p><div style='width: 900px;'><div style='float: left;'><img src='img/stimuli_stroop_happy.png'></img><p class='small'><strong>Press the H key for happy faces</strong></p></div><div class='float: right;'><img src='img/stimuli_stroop_fear.png'></img><p class='small'><strong>Press the F key for faces with fear</strong></p></div></div><p>If the screen turns blank, press <strong>SPACE</strong></p><p><strong>Press any key to begin.</strong></p>","32","html-keyboard-response","8","23176","0.0-8.0","2wjjpf","Thu Feb 18 2021 14:02:13 GMT+0100 (CET)","2021","2","18","14","2","13","hp99","21","female","right","74","71","9","6","6","","","","","","","","",""
"null","<div style=""font-size:60px;"">+</div>","null","html-keyboard-response","9","27179","0.0-9.0-0.0","2wjjpf","Thu Feb 18 2021 14:02:13 GMT+0100 (CET)","2021","2","18","14","2","13","hp99","21","female","right","74","71","9","6","6","","","","","fixation","","","",""
"687","img/image_stim_f_stroop.png","70","image-keyboard-response","10","27870","0.0-9.0-1.0","2wjjpf","Thu Feb 18 2021 14:02:13 GMT+0100 (CET)","2021","2","18","14","2","13","hp99","21","female","right","74","71","9","6","6","","","","","test","fear","happy","f","true"
"null","<div style=""font-size:60px;"">+</div>","null","html-keyboard-response","11","29375","0.0-9.0-0.1","2wjjpf","Thu Feb 18 2021 14:02:13 GMT+0100 (CET)","2021","2","18","14","2","13","hp99","21","female","right","74","71","9","6","6","","","","","fixation","","","",""
"647","img/image_stim_h_stroop.png","72","image-keyboard-response","12","30024","0.0-9.0-1.1","2wjjpf","Thu Feb 18 2021 14:02:13 GMT+0100 (CET)","2021","2","18","14","2","13","hp99","21","female","right","74","71","9","6","6","","","","","test","happy","fear","h","true"
"null","<div style=""font-size:60px;"">+</div>","null","html-keyboard-response","13","30779","0.0-9.0-0.2","2wjjpf","Thu Feb 18 2021 14:02:13 GMT+0100 (CET)","2021","2","18","14","2","13","hp99","21","female","right","74","71","9","6","6","","","","","fixation","","","",""
"594","img/image_stim_f.png","70","image-keyboard-response","14","31375","0.0-9.0-1.2","2wjjpf","Thu Feb 18 2021 14:02:13 GMT+0100 (CET)","2021","2","18","14","2","13","hp99","21","female","right","74","71","9","6","6","","","","","test","fear","fear","f","true"
"null","<div style=""font-size:60px;"">+</div>","null","html-keyboard-response","15","32379","0.0-9.0-0.3","2wjjpf","Thu Feb 18 2021 14:02:13 GMT+0100 (CET)","2021","2","18","14","2","13","hp99","21","female","right","74","71","9","6","6","","","","","fixation","","","",""
"692.0000000000036","img/image_stim_h.png","72","image-keyboard-response","16","33073","0.0-9.0-1.3","2wjjpf","Thu Feb 18 2021 14:02:13 GMT+0100 (CET)","2021","2","18","14","2","13","hp99","21","female","right","74","71","9","6","6","","","","","test","happy","happy","h","true"
"null","<div style=""font-size:60px;"">+</div>","null","html-keyboard-response","17","34577","0.0-9.0-0.4","2wjjpf","Thu Feb 18 2021 14:02:13 GMT+0100 (CET)","2021","2","18","14","2","13","hp99","21","female","right","74","71","9","6","6","","","","","fixation","","","",""
"608","img/image_stim_h.png","72","image-keyboard-response","18","35186","0.0-9.0-1.4","2wjjpf","Thu Feb 18 2021 14:02:13 GMT+0100 (CET)","2021","2","18","14","2","13","hp99","21","female","right","74","71","9","6","6","","","","","test","happy","happy","h","true"
"null","<div style=""font-size:60px;"">+</div>","null","html-keyboard-response","19","35939","0.0-9.0-0.5","2wjjpf","Thu Feb 18 2021 14:02:13 GMT+0100 (CET)","2021","2","18","14","2","13","hp99","21","female","right","74","71","9","6","6","","","","","fixation","","","",""
"982.0000000000073","img/image_stim_h_stroop.png","72","image-keyboard-response","20","36923","0.0-9.0-1.5","2wjjpf","Thu Feb 18 2021 14:02:13 GMT+0100 (CET)","2021","2","18","14","2","13","hp99","21","female","right","74","71","9","6","6","","","","","test","happy","fear","h","true"
"null","<div style=""font-size:60px;"">+</div>","null","html-keyboard-response","21","38427","0.0-9.0-0.6","2wjjpf","Thu Feb 18 2021 14:02:13 GMT+0100 (CET)","2021","2","18","14","2","13","hp99","21","female","right","74","71","9","6","6","","","","","fixation","","","",""
"590.9999999999927","img/image_stim_f.png","70","image-keyboard-response","22","39020","0.0-9.0-1.6","2wjjpf","Thu Feb 18 2021 14:02:13 GMT+0100 (CET)","2021","2","18","14","2","13","hp99","21","female","right","74","71","9","6","6","","","","","test","fear","fear","f","true"
"null","<div style=""font-size:60px;"">+</div>","null","html-keyboard-response","23","40523","0.0-9.0-0.7","2wjjpf","Thu Feb 18 2021 14:02:13 GMT+0100 (CET)","2021","2","18","14","2","13","hp99","21","female","right","74","71","9","6","6","","","","","fixation","","","",""
"686","img/image_stim_f_stroop.png","70","image-keyboard-response","24","41212","0.0-9.0-1.7","2wjjpf","Thu Feb 18 2021 14:02:13 GMT+0100 (CET)","2021","2","18","14","2","13","hp99","21","female","right","74","71","9","6","6","","","","","test","fear","happy","f","true"
"null","<div style=""font-size:60px;"">+</div>","null","html-keyboard-response","25","41466","0.0-9.0-0.8","2wjjpf","Thu Feb 18 2021 14:02:13 GMT+0100 (CET)","2021","2","18","14","2","13","hp99","21","female","right","74","71","9","6","6","","","","","fixation","","","",""
"688","img/image_stim_f_stroop.png","70","image-keyboard-response","26","42156","0.0-9.0-1.8","2wjjpf","Thu Feb 18 2021 14:02:13 GMT+0100 (CET)","2021","2","18","14","2","13","hp99","21","female","right","74","71","9","6","6","","","","","test","fear","happy","f","true"
"null","<div style=""font-size:60px;"">+</div>","null","html-keyboard-response","27","43410","0.0-9.0-0.9","2wjjpf","Thu Feb 18 2021 14:02:13 GMT+0100 (CET)","2021","2","18","14","2","13","hp99","21","female","right","74","71","9","6","6","","","","","fixation","","","",""
"883","img/image_stim_f.png","70","image-keyboard-response","28","44295","0.0-9.0-1.9","2wjjpf","Thu Feb 18 2021 14:02:13 GMT+0100 (CET)","2021","2","18","14","2","13","hp99","21","female","right","74","71","9","6","6","","","","","test","fear","fear","f","true"
"null","<div style=""font-size:60px;"">+</div>","null","html-keyboard-response","29","44550","0.0-9.0-0.10","2wjjpf","Thu Feb 18 2021 14:02:13 GMT+0100 (CET)","2021","2","18","14","2","13","hp99","21","female","right","74","71","9","6","6","","","","","fixation","","","",""
"690","img/image_stim_h_stroop.png","72","image-keyboard-response","30","45242","0.0-9.0-1.10","2wjjpf","Thu Feb 18 2021 14:02:13 GMT+0100 (CET)","2021","2","18","14","2","13","hp99","21","female","right","74","71","9","6","6","","","","","test","happy","fear","h","true"
"null","<div style=""font-size:60px;"">+</div>","null","html-keyboard-response","31","46497","0.0-9.0-0.11","2wjjpf","Thu Feb 18 2021 14:02:13 GMT+0100 (CET)","2021","2","18","14","2","13","hp99","21","female","right","74","71","9","6","6","","","","","fixation","","","",""
"773.9999999999927","img/image_stim_h.png","72","image-keyboard-response","32","47273","0.0-9.0-1.11","2wjjpf","Thu Feb 18 2021 14:02:13 GMT+0100 (CET)","2021","2","18","14","2","13","hp99","21","female","right","74","71","9","6","6","","","","","test","happy","happy","h","true"
"null","<div style=""font-size:60px;"">+</div>","null","html-keyboard-response","33","48527","0.0-9.0-0.12","2wjjpf","Thu Feb 18 2021 14:02:13 GMT+0100 (CET)","2021","2","18","14","2","13","hp99","21","female","right","74","71","9","6","6","","","","","fixation","","","",""
"739","img/image_stim_f_stroop.png","70","image-keyboard-response","34","49269","0.0-9.0-1.12","2wjjpf","Thu Feb 18 2021 14:02:13 GMT+0100 (CET)","2021","2","18","14","2","13","hp99","21","female","right","74","71","9","6","6","","","","","test","fear","happy","f","true"
"null","<div style=""font-size:60px;"">+</div>","null","html-keyboard-response","35","50273","0.0-9.0-0.13","2wjjpf","Thu Feb 18 2021 14:02:13 GMT+0100 (CET)","2021","2","18","14","2","13","hp99","21","female","right","74","71","9","6","6","","","","","fixation","","","",""
"808","img/image_stim_h.png","72","image-keyboard-response","36","51082","0.0-9.0-1.13","2wjjpf","Thu Feb 18 2021 14:02:13 GMT+0100 (CET)","2021","2","18","14","2","13","hp99","21","female","right","74","71","9","6","6","","","","","test","happy","happy","h","true"
"null","<div style=""font-size:60px;"">+</div>","null","html-keyboard-response","37","52336","0.0-9.0-0.14","2wjjpf","Thu Feb 18 2021 14:02:13 GMT+0100 (CET)","2021","2","18","14","2","13","hp99","21","female","right","74","71","9","6","6","","","","","fixation","","","",""
"618","img/image_stim_h_stroop.png","72","image-keyboard-response","38","52956","0.0-9.0-1.14","2wjjpf","Thu Feb 18 2021 14:02:13 GMT+0100 (CET)","2021","2","18","14","2","13","hp99","21","female","right","74","71","9","6","6","","","","","test","happy","fear","h","true"
"null","<div style=""font-size:60px;"">+</div>","null","html-keyboard-response","39","54961","0.0-9.0-0.15","2wjjpf","Thu Feb 18 2021 14:02:13 GMT+0100 (CET)","2021","2","18","14","2","13","hp99","21","female","right","74","71","9","6","6","","","","","fixation","","","",""
"605.0000000000073","img/image_stim_f.png","70","image-keyboard-response","40","55568","0.0-9.0-1.15","2wjjpf","Thu Feb 18 2021 14:02:13 GMT+0100 (CET)","2021","2","18","14","2","13","hp99","21","female","right","74","71","9","6","6","","","","","test","fear","fear","f","true"
"null","<div style=""font-size:60px;"">+</div>","null","html-keyboard-response","41","57322","0.0-9.0-0.16","2wjjpf","Thu Feb 18 2021 14:02:13 GMT+0100 (CET)","2021","2","18","14","2","13","hp99","21","female","right","74","71","9","6","6","","","","","fixation","","","",""
"808.9999999999927","img/image_stim_h.png","72","image-keyboard-response","42","58133","0.0-9.0-1.16","2wjjpf","Thu Feb 18 2021 14:02:13 GMT+0100 (CET)","2021","2","18","14","2","13","hp99","21","female","right","74","71","9","6","6","","","","","test","happy","happy","h","true"
"null","<div style=""font-size:60px;"">+</div>","null","html-keyboard-response","43","59387","0.0-9.0-0.17","2wjjpf","Thu Feb 18 2021 14:02:13 GMT+0100 (CET)","2021","2","18","14","2","13","hp99","21","female","right","74","71","9","6","6","","","","","fixation","","","",""
"684","img/image_stim_f_stroop.png","70","image-keyboard-response","44","60073","0.0-9.0-1.17","2wjjpf","Thu Feb 18 2021 14:02:13 GMT+0100 (CET)","2021","2","18","14","2","13","hp99","21","female","right","74","71","9","6","6","","","","","test","fear","happy","f","true"
"null","<div style=""font-size:60px;"">+</div>","null","html-keyboard-response","45","60576","0.0-9.0-0.18","2wjjpf","Thu Feb 18 2021 14:02:13 GMT+0100 (CET)","2021","2","18","14","2","13","hp99","21","female","right","74","71","9","6","6","","","","","fixation","","","",""
"710","img/image_stim_f.png","70","image-keyboard-response","46","61288","0.0-9.0-1.18","2wjjpf","Thu Feb 18 2021 14:02:13 GMT+0100 (CET)","2021","2","18","14","2","13","hp99","21","female","right","74","71","9","6","6","","","","","test","fear","fear","f","true"
"null","<div style=""font-size:60px;"">+</div>","null","html-keyboard-response","47","62793","0.0-9.0-0.19","2wjjpf","Thu Feb 18 2021 14:02:13 GMT+0100 (CET)","2021","2","18","14","2","13","hp99","21","female","right","74","71","9","6","6","","","","","fixation","","","",""
"637","img/image_stim_h_stroop.png","72","image-keyboard-response","48","63432","0.0-9.0-1.19","2wjjpf","Thu Feb 18 2021 14:02:13 GMT+0100 (CET)","2021","2","18","14","2","13","hp99","21","female","right","74","71","9","6","6","","","","","test","happy","fear","h","true"
"null","<div style=""font-size:60px;"">+</div>","null","html-keyboard-response","49","63937","0.0-9.0-0.20","2wjjpf","Thu Feb 18 2021 14:02:13 GMT+0100 (CET)","2021","2","18","14","2","13","hp99","21","female","right","74","71","9","6","6","","","","","fixation","","","",""
"661.9999999999927","img/image_stim_h_stroop.png","72","image-keyboard-response","50","64601","0.0-9.0-1.20","2wjjpf","Thu Feb 18 2021 14:02:13 GMT+0100 (CET)","2021","2","18","14","2","13","hp99","21","female","right","74","71","9","6","6","","","","","test","happy","fear","h","true"
"null","<div style=""font-size:60px;"">+</div>","null","html-keyboard-response","51","66356","0.0-9.0-0.21","2wjjpf","Thu Feb 18 2021 14:02:13 GMT+0100 (CET)","2021","2","18","14","2","13","hp99","21","female","right","74","71","9","6","6","","","","","fixation","","","",""
"555","img/image_stim_f.png","70","image-keyboard-response","52","66913","0.0-9.0-1.21","2wjjpf","Thu Feb 18 2021 14:02:13 GMT+0100 (CET)","2021","2","18","14","2","13","hp99","21","female","right","74","71","9","6","6","","","","","test","fear","fear","f","true"
"null","<div style=""font-size:60px;"">+</div>","null","html-keyboard-response","53","68168","0.0-9.0-0.22","2wjjpf","Thu Feb 18 2021 14:02:13 GMT+0100 (CET)","2021","2","18","14","2","13","hp99","21","female","right","74","71","9","6","6","","","","","fixation","","","",""
"592","img/image_stim_h.png","72","image-keyboard-response","54","68762","0.0-9.0-1.22","2wjjpf","Thu Feb 18 2021 14:02:13 GMT+0100 (CET)","2021","2","18","14","2","13","hp99","21","female","right","74","71","9","6","6","","","","","test","happy","happy","h","true"
"null","<div style=""font-size:60px;"">+</div>","null","html-keyboard-response","55","69517","0.0-9.0-0.23","2wjjpf","Thu Feb 18 2021 14:02:13 GMT+0100 (CET)","2021","2","18","14","2","13","hp99","21","female","right","74","71","9","6","6","","","","","fixation","","","",""
"595","img/image_stim_f_stroop.png","70","image-keyboard-response","56","70114","0.0-9.0-1.23","2wjjpf","Thu Feb 18 2021 14:02:13 GMT+0100 (CET)","2021","2","18","14","2","13","hp99","21","female","right","74","71","9","6","6","","","","","test","fear","happy","f","true"
"null","<div style=""font-size:60px;"">+</div>","null","html-keyboard-response","57","71868","0.0-9.0-0.24","2wjjpf","Thu Feb 18 2021 14:02:13 GMT+0100 (CET)","2021","2","18","14","2","13","hp99","21","female","right","74","71","9","6","6","","","","","fixation","","","",""
"640","img/image_stim_h_stroop.png","72","image-keyboard-response","58","72510","0.0-9.0-1.24","2wjjpf","Thu Feb 18 2021 14:02:13 GMT+0100 (CET)","2021","2","18","14","2","13","hp99","21","female","right","74","71","9","6","6","","","","","test","happy","fear","h","true"
"null","<div style=""font-size:60px;"">+</div>","null","html-keyboard-response","59","73515","0.0-9.0-0.25","2wjjpf","Thu Feb 18 2021 14:02:13 GMT+0100 (CET)","2021","2","18","14","2","13","hp99","21","female","right","74","71","9","6","6","","","","","fixation","","","",""
"645","img/image_stim_f.png","70","image-keyboard-response","60","74162","0.0-9.0-1.25","2wjjpf","Thu Feb 18 2021 14:02:13 GMT+0100 (CET)","2021","2","18","14","2","13","hp99","21","female","right","74","71","9","6","6","","","","","test","fear","fear","f","true"
"null","<div style=""font-size:60px;"">+</div>","null","html-keyboard-response","61","74667","0.0-9.0-0.26","2wjjpf","Thu Feb 18 2021 14:02:13 GMT+0100 (CET)","2021","2","18","14","2","13","hp99","21","female","right","74","71","9","6","6","","","","","fixation","","","",""
"607","img/image_stim_h.png","72","image-keyboard-response","62","75276","0.0-9.0-1.26","2wjjpf","Thu Feb 18 2021 14:02:13 GMT+0100 (CET)","2021","2","18","14","2","13","hp99","21","female","right","74","71","9","6","6","","","","","test","happy","happy","h","true"
"null","<div style=""font-size:60px;"">+</div>","null","html-keyboard-response","63","76531","0.0-9.0-0.27","2wjjpf","Thu Feb 18 2021 14:02:13 GMT+0100 (CET)","2021","2","18","14","2","13","hp99","21","female","right","74","71","9","6","6","","","","","fixation","","","",""
"605","img/image_stim_f_stroop.png","70","image-keyboard-response","64","77139","0.0-9.0-1.27","2wjjpf","Thu Feb 18 2021 14:02:13 GMT+0100 (CET)","2021","2","18","14","2","13","hp99","21","female","right","74","71","9","6","6","","","","","test","fear","happy","f","true"
"null","<div style=""font-size:60px;"">+</div>","null","html-keyboard-response","65","77894","0.0-9.0-0.28","2wjjpf","Thu Feb 18 2021 14:02:13 GMT+0100 (CET)","2021","2","18","14","2","13","hp99","21","female","right","74","71","9","6","6","","","","","fixation","","","",""
"555","img/image_stim_h.png","72","image-keyboard-response","66","78451","0.0-9.0-1.28","2wjjpf","Thu Feb 18 2021 14:02:13 GMT+0100 (CET)","2021","2","18","14","2","13","hp99","21","female","right","74","71","9","6","6","","","","","test","happy","happy","h","true"
"null","<div style=""font-size:60px;"">+</div>","null","html-keyboard-response","67","80206","0.0-9.0-0.29","2wjjpf","Thu Feb 18 2021 14:02:13 GMT+0100 (CET)","2021","2","18","14","2","13","hp99","21","female","right","74","71","9","6","6","","","","","fixation","","","",""
"937","img/image_stim_f.png","70","image-keyboard-response","68","81146","0.0-9.0-1.29","2wjjpf","Thu Feb 18 2021 14:02:13 GMT+0100 (CET)","2021","2","18","14","2","13","hp99","21","female","right","74","71","9","6","6","","","","","test","fear","fear","f","true"
"null","<div style=""font-size:60px;"">+</div>","null","html-keyboard-response","69","81401","0.0-9.0-0.30","2wjjpf","Thu Feb 18 2021 14:02:13 GMT+0100 (CET)","2021","2","18","14","2","13","hp99","21","female","right","74","71","9","6","6","","","","","fixation","","","",""
"805","img/image_stim_f_stroop.png","70","image-keyboard-response","70","82209","0.0-9.0-1.30","2wjjpf","Thu Feb 18 2021 14:02:13 GMT+0100 (CET)","2021","2","18","14","2","13","hp99","21","female","right","74","71","9","6","6","","","","","test","fear","happy","f","true"
"null","<div style=""font-size:60px;"">+</div>","null","html-keyboard-response","71","83964","0.0-9.0-0.31","2wjjpf","Thu Feb 18 2021 14:02:13 GMT+0100 (CET)","2021","2","18","14","2","13","hp99","21","female","right","74","71","9","6","6","","","","","fixation","","","",""
"769.9999999999854","img/image_stim_h_stroop.png","72","image-keyboard-response","72","84736","0.0-9.0-1.31","2wjjpf","Thu Feb 18 2021 14:02:13 GMT+0100 (CET)","2021","2","18","14","2","13","hp99","21","female","right","74","71","9","6","6","","","","","test","happy","fear","h","true"
"null","<div style=""font-size:60px;"">+</div>","null","html-keyboard-response","73","85741","0.0-9.0-0.32","2wjjpf","Thu Feb 18 2021 14:02:13 GMT+0100 (CET)","2021","2","18","14","2","13","hp99","21","female","right","74","71","9","6","6","","","","","fixation","","","",""
"550","img/image_stim_h.png","72","image-keyboard-response","74","86294","0.0-9.0-1.32","2wjjpf","Thu Feb 18 2021 14:02:13 GMT+0100 (CET)","2021","2","18","14","2","13","hp99","21","female","right","74","71","9","6","6","","","","","test","happy","happy","h","true"
"null","<div style=""font-size:60px;"">+</div>","null","html-keyboard-response","75","86799","0.0-9.0-0.33","2wjjpf","Thu Feb 18 2021 14:02:13 GMT+0100 (CET)","2021","2","18","14","2","13","hp99","21","female","right","74","71","9","6","6","","","","","fixation","","","",""
"576","img/image_stim_f_stroop.png","70","image-keyboard-response","76","87378","0.0-9.0-1.33","2wjjpf","Thu Feb 18 2021 14:02:13 GMT+0100 (CET)","2021","2","18","14","2","13","hp99","21","female","right","74","71","9","6","6","","","","","test","fear","happy","f","true"
"null","<div style=""font-size:60px;"">+</div>","null","html-keyboard-response","77","89382","0.0-9.0-0.34","2wjjpf","Thu Feb 18 2021 14:02:13 GMT+0100 (CET)","2021","2","18","14","2","13","hp99","21","female","right","74","71","9","6","6","","","","","fixation","","","",""
"646","img/image_stim_h_stroop.png","72","image-keyboard-response","78","90029","0.0-9.0-1.34","2wjjpf","Thu Feb 18 2021 14:02:13 GMT+0100 (CET)","2021","2","18","14","2","13","hp99","21","female","right","74","71","9","6","6","","","","","test","happy","fear","h","true"
"null","<div style=""font-size:60px;"">+</div>","null","html-keyboard-response","79","91785","0.0-9.0-0.35","2wjjpf","Thu Feb 18 2021 14:02:13 GMT+0100 (CET)","2021","2","18","14","2","13","hp99","21","female","right","74","71","9","6","6","","","","","fixation","","","",""
"508","img/image_stim_f.png","70","image-keyboard-response","80","92296","0.0-9.0-1.35","2wjjpf","Thu Feb 18 2021 14:02:13 GMT+0100 (CET)","2021","2","18","14","2","13","hp99","21","female","right","74","71","9","6","6","","","","","test","fear","fear","f","true"
