"rt","stimulus","key_press","trial_type","trial_index","time_elapsed","internal_node_id","exp_id","Time","year","month","date","hour","minute","seconds","id","age","Gender","Handedness","mood","fresh","hunger","H_since_Sleep","H_since_Eat","responses","question_order","slider_start","response","test_part","face","word","correct_response","correct"
"916","<p>Welcome to this experiment on daily rhythms and cognition.</p><p>First you will be asked some questions about yourself.</p><p>Then a short experiment will measure your response time.</p><p>Take the test at different times of the day/night.</p><p>The test is anonymous, but comparing your data across time is important.</p><p>Therefore, please make up and remember a personal ID (two letters+ two numbers).</p><p>Use this ID whenever taking the test.</p><p><strong>Press any key to begin.</strong></p>","32","html-keyboard-response","0","922","0.0-0.0","ek3aqq","Fri Feb 11 2022 09:14:44 GMT+0100 (CET)","2022","2","11","9","14","44","mf21","21","female","right","85","2","1","17","7","","","","","","","","",""
"1959.9999999999998","","","survey-text","1","2907","0.0-1.0","ek3aqq","Fri Feb 11 2022 09:14:44 GMT+0100 (CET)","2022","2","11","9","14","44","mf21","21","female","right","85","2","1","17","7","{""Q0"":""mf21""}","","","","","","","",""
"1165","","","survey-text","2","4081","0.0-2.0","ek3aqq","Fri Feb 11 2022 09:14:44 GMT+0100 (CET)","2022","2","11","9","14","44","mf21","21","female","right","85","2","1","17","7","{""Q0"":""21""}","","","","","","","",""
"3033.999999999999","","","survey-multi-select","3","7119","0.0-3.0","ek3aqq","Fri Feb 11 2022 09:14:44 GMT+0100 (CET)","2022","2","11","9","14","44","mf21","21","female","right","85","2","1","17","7","{""Gender"":[""female""],""Hand"":[""right""]}","[0,1]","","","","","","",""
"4260","<p>How Sad/Angry or Happy are you right now?</p>","","html-slider-response","4","11381","0.0-4.0","ek3aqq","Fri Feb 11 2022 09:14:44 GMT+0100 (CET)","2022","2","11","9","14","44","mf21","21","female","right","85","2","1","17","7","","","50","85","","","","",""
"2381","<p>How Tired/Sleepy/Distracted or Fresh/Awake/Alert are you right now?</p>","","html-slider-response","5","13775","0.0-5.0","ek3aqq","Fri Feb 11 2022 09:14:44 GMT+0100 (CET)","2022","2","11","9","14","44","mf21","21","female","right","85","2","1","17","7","","","50","2","","","","",""
"2979.0000000000036","<p>How Hungry or Satiated are you right now?</p>","","html-slider-response","6","16756","0.0-6.0","ek3aqq","Fri Feb 11 2022 09:14:44 GMT+0100 (CET)","2022","2","11","9","14","44","mf21","21","female","right","85","2","1","17","7","","","50","1","","","","",""
"30673","","","survey-multi-select","7","47442","0.0-7.0","ek3aqq","Fri Feb 11 2022 09:14:44 GMT+0100 (CET)","2022","2","11","9","14","44","mf21","21","female","right","85","2","1","17","7","{""Sleep"":[""17""],""Eat"":[""7""]}","[0,1]","","","","","","",""
"3401","<p>In this experiment, a face and a word will appear in the center of the screen.</p><p>If the face is <strong>happy</strong>, press the letter <strong>H</strong> with <strong>right</strong> index finger.</p><p>If the face is <strong>fearful</strong>, press the letter <strong>F</strong> with <strong>left</strong> index finger.</p><p><strong>Ignore the written words</strong>. Respond as fast as possible while being correct. </p><div style='width: 900px;'><div style='float: left;'><img src='img/stimuli_stroop_happy.png'></img><p class='small'><strong>Press the H key for happy faces</strong></p></div><div class='float: right;'><img src='img/stimuli_stroop_fear.png'></img><p class='small'><strong>Press the F key for faces with fear</strong></p></div></div><p>If the screen turns blank, press <strong>SPACE</strong></p><p><strong>Press any key to begin.</strong></p>","32","html-keyboard-response","8","50845","0.0-8.0","ek3aqq","Fri Feb 11 2022 09:14:44 GMT+0100 (CET)","2022","2","11","9","14","44","mf21","21","female","right","85","2","1","17","7","","","","","","","","",""
"null","<div style=""font-size:60px;"">+</div>","null","html-keyboard-response","9","53100","0.0-9.0-0.0","ek3aqq","Fri Feb 11 2022 09:14:44 GMT+0100 (CET)","2022","2","11","9","14","44","mf21","21","female","right","85","2","1","17","7","","","","","fixation","","","",""
"505","img/image_stim_f_stroop.png","72","image-keyboard-response","10","53615","0.0-9.0-1.0","ek3aqq","Fri Feb 11 2022 09:14:44 GMT+0100 (CET)","2022","2","11","9","14","44","mf21","21","female","right","85","2","1","17","7","","","","","test","fear","happy","f","false"
"null","<div style=""font-size:60px;"">+</div>","null","html-keyboard-response","11","54873","0.0-9.0-0.1","ek3aqq","Fri Feb 11 2022 09:14:44 GMT+0100 (CET)","2022","2","11","9","14","44","mf21","21","female","right","85","2","1","17","7","","","","","fixation","","","",""
"451","img/image_stim_f.png","70","image-keyboard-response","12","55331","0.0-9.0-1.1","ek3aqq","Fri Feb 11 2022 09:14:44 GMT+0100 (CET)","2022","2","11","9","14","44","mf21","21","female","right","85","2","1","17","7","","","","","test","fear","fear","f","true"
"null","<div style=""font-size:60px;"">+</div>","null","html-keyboard-response","13","55838","0.0-9.0-0.2","ek3aqq","Fri Feb 11 2022 09:14:44 GMT+0100 (CET)","2022","2","11","9","14","44","mf21","21","female","right","85","2","1","17","7","","","","","fixation","","","",""
"420","img/image_stim_h.png","70","image-keyboard-response","14","56264","0.0-9.0-1.2","ek3aqq","Fri Feb 11 2022 09:14:44 GMT+0100 (CET)","2022","2","11","9","14","44","mf21","21","female","right","85","2","1","17","7","","","","","test","happy","happy","h","false"
"null","<div style=""font-size:60px;"">+</div>","null","html-keyboard-response","15","58019","0.0-9.0-0.3","ek3aqq","Fri Feb 11 2022 09:14:44 GMT+0100 (CET)","2022","2","11","9","14","44","mf21","21","female","right","85","2","1","17","7","","","","","fixation","","","",""
"405.9999999999927","img/image_stim_h_stroop.png","72","image-keyboard-response","16","58432","0.0-9.0-1.3","ek3aqq","Fri Feb 11 2022 09:14:44 GMT+0100 (CET)","2022","2","11","9","14","44","mf21","21","female","right","85","2","1","17","7","","","","","test","happy","fear","h","true"
"null","<div style=""font-size:60px;"">+</div>","null","html-keyboard-response","17","60438","0.0-9.0-0.4","ek3aqq","Fri Feb 11 2022 09:14:44 GMT+0100 (CET)","2022","2","11","9","14","44","mf21","21","female","right","85","2","1","17","7","","","","","fixation","","","",""
"470","img/image_stim_f.png","70","image-keyboard-response","18","60911","0.0-9.0-1.4","ek3aqq","Fri Feb 11 2022 09:14:44 GMT+0100 (CET)","2022","2","11","9","14","44","mf21","21","female","right","85","2","1","17","7","","","","","test","fear","fear","f","true"
"null","<div style=""font-size:60px;"">+</div>","null","html-keyboard-response","19","61668","0.0-9.0-0.5","ek3aqq","Fri Feb 11 2022 09:14:44 GMT+0100 (CET)","2022","2","11","9","14","44","mf21","21","female","right","85","2","1","17","7","","","","","fixation","","","",""
"492","img/image_stim_h_stroop.png","72","image-keyboard-response","20","62162","0.0-9.0-1.5","ek3aqq","Fri Feb 11 2022 09:14:44 GMT+0100 (CET)","2022","2","11","9","14","44","mf21","21","female","right","85","2","1","17","7","","","","","test","happy","fear","h","true"
"null","<div style=""font-size:60px;"">+</div>","null","html-keyboard-response","21","62669","0.0-9.0-0.6","ek3aqq","Fri Feb 11 2022 09:14:44 GMT+0100 (CET)","2022","2","11","9","14","44","mf21","21","female","right","85","2","1","17","7","","","","","fixation","","","",""
"476.9999999999927","img/image_stim_h.png","70","image-keyboard-response","22","63148","0.0-9.0-1.6","ek3aqq","Fri Feb 11 2022 09:14:44 GMT+0100 (CET)","2022","2","11","9","14","44","mf21","21","female","right","85","2","1","17","7","","","","","test","happy","happy","h","false"
"null","<div style=""font-size:60px;"">+</div>","null","html-keyboard-response","23","64906","0.0-9.0-0.7","ek3aqq","Fri Feb 11 2022 09:14:44 GMT+0100 (CET)","2022","2","11","9","14","44","mf21","21","female","right","85","2","1","17","7","","","","","fixation","","","",""
"586.0000000000073","img/image_stim_f_stroop.png","70","image-keyboard-response","24","65494","0.0-9.0-1.7","ek3aqq","Fri Feb 11 2022 09:14:44 GMT+0100 (CET)","2022","2","11","9","14","44","mf21","21","female","right","85","2","1","17","7","","","","","test","fear","happy","f","true"
"null","<div style=""font-size:60px;"">+</div>","null","html-keyboard-response","25","66501","0.0-9.0-0.8","ek3aqq","Fri Feb 11 2022 09:14:44 GMT+0100 (CET)","2022","2","11","9","14","44","mf21","21","female","right","85","2","1","17","7","","","","","fixation","","","",""
"745.9999999999854","img/image_stim_f.png","70","image-keyboard-response","26","67249","0.0-9.0-1.8","ek3aqq","Fri Feb 11 2022 09:14:44 GMT+0100 (CET)","2022","2","11","9","14","44","mf21","21","female","right","85","2","1","17","7","","","","","test","fear","fear","f","true"
"null","<div style=""font-size:60px;"">+</div>","null","html-keyboard-response","27","69006","0.0-9.0-0.9","ek3aqq","Fri Feb 11 2022 09:14:44 GMT+0100 (CET)","2022","2","11","9","14","44","mf21","21","female","right","85","2","1","17","7","","","","","fixation","","","",""
"450","img/image_stim_h.png","72","image-keyboard-response","28","69458","0.0-9.0-1.9","ek3aqq","Fri Feb 11 2022 09:14:44 GMT+0100 (CET)","2022","2","11","9","14","44","mf21","21","female","right","85","2","1","17","7","","","","","test","happy","happy","h","true"
"null","<div style=""font-size:60px;"">+</div>","null","html-keyboard-response","29","70965","0.0-9.0-0.10","ek3aqq","Fri Feb 11 2022 09:14:44 GMT+0100 (CET)","2022","2","11","9","14","44","mf21","21","female","right","85","2","1","17","7","","","","","fixation","","","",""
"344","img/image_stim_h_stroop.png","70","image-keyboard-response","30","71312","0.0-9.0-1.10","ek3aqq","Fri Feb 11 2022 09:14:44 GMT+0100 (CET)","2022","2","11","9","14","44","mf21","21","female","right","85","2","1","17","7","","","","","test","happy","fear","h","false"
"null","<div style=""font-size:60px;"">+</div>","null","html-keyboard-response","31","72820","0.0-9.0-0.11","ek3aqq","Fri Feb 11 2022 09:14:44 GMT+0100 (CET)","2022","2","11","9","14","44","mf21","21","female","right","85","2","1","17","7","","","","","fixation","","","",""
"607","img/image_stim_f_stroop.png","70","image-keyboard-response","32","73429","0.0-9.0-1.11","ek3aqq","Fri Feb 11 2022 09:14:44 GMT+0100 (CET)","2022","2","11","9","14","44","mf21","21","female","right","85","2","1","17","7","","","","","test","fear","happy","f","true"
"null","<div style=""font-size:60px;"">+</div>","null","html-keyboard-response","33","74187","0.0-9.0-0.12","ek3aqq","Fri Feb 11 2022 09:14:44 GMT+0100 (CET)","2022","2","11","9","14","44","mf21","21","female","right","85","2","1","17","7","","","","","fixation","","","",""
"485","img/image_stim_h_stroop.png","72","image-keyboard-response","34","74674","0.0-9.0-1.12","ek3aqq","Fri Feb 11 2022 09:14:44 GMT+0100 (CET)","2022","2","11","9","14","44","mf21","21","female","right","85","2","1","17","7","","","","","test","happy","fear","h","true"
"null","<div style=""font-size:60px;"">+</div>","null","html-keyboard-response","35","75181","0.0-9.0-0.13","ek3aqq","Fri Feb 11 2022 09:14:44 GMT+0100 (CET)","2022","2","11","9","14","44","mf21","21","female","right","85","2","1","17","7","","","","","fixation","","","",""
"782","img/image_stim_f_stroop.png","70","image-keyboard-response","36","75964","0.0-9.0-1.13","ek3aqq","Fri Feb 11 2022 09:14:44 GMT+0100 (CET)","2022","2","11","9","14","44","mf21","21","female","right","85","2","1","17","7","","","","","test","fear","happy","f","true"
"null","<div style=""font-size:60px;"">+</div>","null","html-keyboard-response","37","77223","0.0-9.0-0.14","ek3aqq","Fri Feb 11 2022 09:14:44 GMT+0100 (CET)","2022","2","11","9","14","44","mf21","21","female","right","85","2","1","17","7","","","","","fixation","","","",""
"614","img/image_stim_f.png","70","image-keyboard-response","38","77839","0.0-9.0-1.14","ek3aqq","Fri Feb 11 2022 09:14:44 GMT+0100 (CET)","2022","2","11","9","14","44","mf21","21","female","right","85","2","1","17","7","","","","","test","fear","fear","f","true"
"null","<div style=""font-size:60px;"">+</div>","null","html-keyboard-response","39","79096","0.0-9.0-0.15","ek3aqq","Fri Feb 11 2022 09:14:44 GMT+0100 (CET)","2022","2","11","9","14","44","mf21","21","female","right","85","2","1","17","7","","","","","fixation","","","",""
"862","img/image_stim_h.png","72","image-keyboard-response","40","79960","0.0-9.0-1.15","ek3aqq","Fri Feb 11 2022 09:14:44 GMT+0100 (CET)","2022","2","11","9","14","44","mf21","21","female","right","85","2","1","17","7","","","","","test","happy","happy","h","true"
"null","<div style=""font-size:60px;"">+</div>","null","html-keyboard-response","41","81218","0.0-9.0-0.16","ek3aqq","Fri Feb 11 2022 09:14:44 GMT+0100 (CET)","2022","2","11","9","14","44","mf21","21","female","right","85","2","1","17","7","","","","","fixation","","","",""
"428","img/image_stim_f.png","70","image-keyboard-response","42","81648","0.0-9.0-1.16","ek3aqq","Fri Feb 11 2022 09:14:44 GMT+0100 (CET)","2022","2","11","9","14","44","mf21","21","female","right","85","2","1","17","7","","","","","test","fear","fear","f","true"
"null","<div style=""font-size:60px;"">+</div>","null","html-keyboard-response","43","81907","0.0-9.0-0.17","ek3aqq","Fri Feb 11 2022 09:14:44 GMT+0100 (CET)","2022","2","11","9","14","44","mf21","21","female","right","85","2","1","17","7","","","","","fixation","","","",""
"1065","img/image_stim_f_stroop.png","70","image-keyboard-response","44","82974","0.0-9.0-1.17","ek3aqq","Fri Feb 11 2022 09:14:44 GMT+0100 (CET)","2022","2","11","9","14","44","mf21","21","female","right","85","2","1","17","7","","","","","test","fear","happy","f","true"
"null","<div style=""font-size:60px;"">+</div>","null","html-keyboard-response","45","83982","0.0-9.0-0.18","ek3aqq","Fri Feb 11 2022 09:14:44 GMT+0100 (CET)","2022","2","11","9","14","44","mf21","21","female","right","85","2","1","17","7","","","","","fixation","","","",""
"882","img/image_stim_h.png","72","image-keyboard-response","46","84866","0.0-9.0-1.18","ek3aqq","Fri Feb 11 2022 09:14:44 GMT+0100 (CET)","2022","2","11","9","14","44","mf21","21","female","right","85","2","1","17","7","","","","","test","happy","happy","h","true"
"null","<div style=""font-size:60px;"">+</div>","null","html-keyboard-response","47","85124","0.0-9.0-0.19","ek3aqq","Fri Feb 11 2022 09:14:44 GMT+0100 (CET)","2022","2","11","9","14","44","mf21","21","female","right","85","2","1","17","7","","","","","fixation","","","",""
"617","img/image_stim_h_stroop.png","72","image-keyboard-response","48","85743","0.0-9.0-1.19","ek3aqq","Fri Feb 11 2022 09:14:44 GMT+0100 (CET)","2022","2","11","9","14","44","mf21","21","female","right","85","2","1","17","7","","","","","test","happy","fear","h","true"
"null","<div style=""font-size:60px;"">+</div>","null","html-keyboard-response","49","86503","0.0-9.0-0.20","ek3aqq","Fri Feb 11 2022 09:14:44 GMT+0100 (CET)","2022","2","11","9","14","44","mf21","21","female","right","85","2","1","17","7","","","","","fixation","","","",""
"463","img/image_stim_h.png","72","image-keyboard-response","50","86968","0.0-9.0-1.20","ek3aqq","Fri Feb 11 2022 09:14:44 GMT+0100 (CET)","2022","2","11","9","14","44","mf21","21","female","right","85","2","1","17","7","","","","","test","happy","happy","h","true"
"null","<div style=""font-size:60px;"">+</div>","null","html-keyboard-response","51","88228","0.0-9.0-0.21","ek3aqq","Fri Feb 11 2022 09:14:44 GMT+0100 (CET)","2022","2","11","9","14","44","mf21","21","female","right","85","2","1","17","7","","","","","fixation","","","",""
"453","img/image_stim_f_stroop.png","70","image-keyboard-response","52","88684","0.0-9.0-1.21","ek3aqq","Fri Feb 11 2022 09:14:44 GMT+0100 (CET)","2022","2","11","9","14","44","mf21","21","female","right","85","2","1","17","7","","","","","test","fear","happy","f","true"
"null","<div style=""font-size:60px;"">+</div>","null","html-keyboard-response","53","89444","0.0-9.0-0.22","ek3aqq","Fri Feb 11 2022 09:14:44 GMT+0100 (CET)","2022","2","11","9","14","44","mf21","21","female","right","85","2","1","17","7","","","","","fixation","","","",""
"579","img/image_stim_f.png","70","image-keyboard-response","54","90025","0.0-9.0-1.22","ek3aqq","Fri Feb 11 2022 09:14:44 GMT+0100 (CET)","2022","2","11","9","14","44","mf21","21","female","right","85","2","1","17","7","","","","","test","fear","fear","f","true"
"null","<div style=""font-size:60px;"">+</div>","null","html-keyboard-response","55","90786","0.0-9.0-0.23","ek3aqq","Fri Feb 11 2022 09:14:44 GMT+0100 (CET)","2022","2","11","9","14","44","mf21","21","female","right","85","2","1","17","7","","","","","fixation","","","",""
"503","img/image_stim_h_stroop.png","70","image-keyboard-response","56","91291","0.0-9.0-1.23","ek3aqq","Fri Feb 11 2022 09:14:44 GMT+0100 (CET)","2022","2","11","9","14","44","mf21","21","female","right","85","2","1","17","7","","","","","test","happy","fear","h","false"
"null","<div style=""font-size:60px;"">+</div>","null","html-keyboard-response","57","93051","0.0-9.0-0.24","ek3aqq","Fri Feb 11 2022 09:14:44 GMT+0100 (CET)","2022","2","11","9","14","44","mf21","21","female","right","85","2","1","17","7","","","","","fixation","","","",""
"594","img/image_stim_f_stroop.png","70","image-keyboard-response","58","93646","0.0-9.0-1.24","ek3aqq","Fri Feb 11 2022 09:14:44 GMT+0100 (CET)","2022","2","11","9","14","44","mf21","21","female","right","85","2","1","17","7","","","","","test","fear","happy","f","true"
"null","<div style=""font-size:60px;"">+</div>","null","html-keyboard-response","59","95406","0.0-9.0-0.25","ek3aqq","Fri Feb 11 2022 09:14:44 GMT+0100 (CET)","2022","2","11","9","14","44","mf21","21","female","right","85","2","1","17","7","","","","","fixation","","","",""
"630.0000000000146","img/image_stim_h.png","72","image-keyboard-response","60","96039","0.0-9.0-1.25","ek3aqq","Fri Feb 11 2022 09:14:44 GMT+0100 (CET)","2022","2","11","9","14","44","mf21","21","female","right","85","2","1","17","7","","","","","test","happy","happy","h","true"
"null","<div style=""font-size:60px;"">+</div>","null","html-keyboard-response","61","96798","0.0-9.0-0.26","ek3aqq","Fri Feb 11 2022 09:14:44 GMT+0100 (CET)","2022","2","11","9","14","44","mf21","21","female","right","85","2","1","17","7","","","","","fixation","","","",""
"547","img/image_stim_f.png","70","image-keyboard-response","62","97347","0.0-9.0-1.26","ek3aqq","Fri Feb 11 2022 09:14:44 GMT+0100 (CET)","2022","2","11","9","14","44","mf21","21","female","right","85","2","1","17","7","","","","","test","fear","fear","f","true"
"null","<div style=""font-size:60px;"">+</div>","null","html-keyboard-response","63","97607","0.0-9.0-0.27","ek3aqq","Fri Feb 11 2022 09:14:44 GMT+0100 (CET)","2022","2","11","9","14","44","mf21","21","female","right","85","2","1","17","7","","","","","fixation","","","",""
"752","img/image_stim_h_stroop.png","72","image-keyboard-response","64","98360","0.0-9.0-1.27","ek3aqq","Fri Feb 11 2022 09:14:44 GMT+0100 (CET)","2022","2","11","9","14","44","mf21","21","female","right","85","2","1","17","7","","","","","test","happy","fear","h","true"
"null","<div style=""font-size:60px;"">+</div>","null","html-keyboard-response","65","98870","0.0-9.0-0.28","ek3aqq","Fri Feb 11 2022 09:14:44 GMT+0100 (CET)","2022","2","11","9","14","44","mf21","21","female","right","85","2","1","17","7","","","","","fixation","","","",""
"533","img/image_stim_h_stroop.png","72","image-keyboard-response","66","99405","0.0-9.0-1.28","ek3aqq","Fri Feb 11 2022 09:14:44 GMT+0100 (CET)","2022","2","11","9","14","44","mf21","21","female","right","85","2","1","17","7","","","","","test","happy","fear","h","true"
"null","<div style=""font-size:60px;"">+</div>","null","html-keyboard-response","67","100414","0.0-9.0-0.29","ek3aqq","Fri Feb 11 2022 09:14:44 GMT+0100 (CET)","2022","2","11","9","14","44","mf21","21","female","right","85","2","1","17","7","","","","","fixation","","","",""
"593.0000000000146","img/image_stim_h.png","72","image-keyboard-response","68","101009","0.0-9.0-1.29","ek3aqq","Fri Feb 11 2022 09:14:44 GMT+0100 (CET)","2022","2","11","9","14","44","mf21","21","female","right","85","2","1","17","7","","","","","test","happy","happy","h","true"
"null","<div style=""font-size:60px;"">+</div>","null","html-keyboard-response","69","101520","0.0-9.0-0.30","ek3aqq","Fri Feb 11 2022 09:14:44 GMT+0100 (CET)","2022","2","11","9","14","44","mf21","21","female","right","85","2","1","17","7","","","","","fixation","","","",""
"517.0000000000146","img/image_stim_f.png","70","image-keyboard-response","70","102039","0.0-9.0-1.30","ek3aqq","Fri Feb 11 2022 09:14:44 GMT+0100 (CET)","2022","2","11","9","14","44","mf21","21","female","right","85","2","1","17","7","","","","","test","fear","fear","f","true"
"null","<div style=""font-size:60px;"">+</div>","null","html-keyboard-response","71","103799","0.0-9.0-0.31","ek3aqq","Fri Feb 11 2022 09:14:44 GMT+0100 (CET)","2022","2","11","9","14","44","mf21","21","female","right","85","2","1","17","7","","","","","fixation","","","",""
"946.0000000000146","img/image_stim_f_stroop.png","70","image-keyboard-response","72","104746","0.0-9.0-1.31","ek3aqq","Fri Feb 11 2022 09:14:44 GMT+0100 (CET)","2022","2","11","9","14","44","mf21","21","female","right","85","2","1","17","7","","","","","test","fear","happy","f","true"
"null","<div style=""font-size:60px;"">+</div>","null","html-keyboard-response","73","106008","0.0-9.0-0.32","ek3aqq","Fri Feb 11 2022 09:14:44 GMT+0100 (CET)","2022","2","11","9","14","44","mf21","21","female","right","85","2","1","17","7","","","","","fixation","","","",""
"490.00000000001455","img/image_stim_f.png","70","image-keyboard-response","74","106499","0.0-9.0-1.32","ek3aqq","Fri Feb 11 2022 09:14:44 GMT+0100 (CET)","2022","2","11","9","14","44","mf21","21","female","right","85","2","1","17","7","","","","","test","fear","fear","f","true"
"null","<div style=""font-size:60px;"">+</div>","null","html-keyboard-response","75","107261","0.0-9.0-0.33","ek3aqq","Fri Feb 11 2022 09:14:44 GMT+0100 (CET)","2022","2","11","9","14","44","mf21","21","female","right","85","2","1","17","7","","","","","fixation","","","",""
"452","img/image_stim_h_stroop.png","72","image-keyboard-response","76","107714","0.0-9.0-1.33","ek3aqq","Fri Feb 11 2022 09:14:44 GMT+0100 (CET)","2022","2","11","9","14","44","mf21","21","female","right","85","2","1","17","7","","","","","test","happy","fear","h","true"
"null","<div style=""font-size:60px;"">+</div>","null","html-keyboard-response","77","109226","0.0-9.0-0.34","ek3aqq","Fri Feb 11 2022 09:14:44 GMT+0100 (CET)","2022","2","11","9","14","44","mf21","21","female","right","85","2","1","17","7","","","","","fixation","","","",""
"302","img/image_stim_h.png","70","image-keyboard-response","78","109531","0.0-9.0-1.34","ek3aqq","Fri Feb 11 2022 09:14:44 GMT+0100 (CET)","2022","2","11","9","14","44","mf21","21","female","right","85","2","1","17","7","","","","","test","happy","happy","h","false"
"null","<div style=""font-size:60px;"">+</div>","null","html-keyboard-response","79","110290","0.0-9.0-0.35","ek3aqq","Fri Feb 11 2022 09:14:44 GMT+0100 (CET)","2022","2","11","9","14","44","mf21","21","female","right","85","2","1","17","7","","","","","fixation","","","",""
"447","img/image_stim_f_stroop.png","72","image-keyboard-response","80","110740","0.0-9.0-1.35","ek3aqq","Fri Feb 11 2022 09:14:44 GMT+0100 (CET)","2022","2","11","9","14","44","mf21","21","female","right","85","2","1","17","7","","","","","test","fear","happy","f","false"
"2899","<p>You responded correctly on 81% of the trials.</p><p>Your average response time was 603ms.</p><p><strong>Thank you!</strong></p><p>Refresh the screen to take the test again.</p>","32","html-keyboard-response","81","113649","0.0-10.0","ek3aqq","Fri Feb 11 2022 09:14:44 GMT+0100 (CET)","2022","2","11","9","14","44","mf21","21","female","right","85","2","1","17","7","","","","","","","","",""
